time;altitude;posLat;posLon;psi;theta;phi;R;Q;P;accZ;accY;accX;windHdg;windSpeed;airSpeed;groundSpeed;track;amslCorr;TAS;OAT
658,486;1,5;21,039903;105,489877;1,646;0,001;0,014;0,123;-0,024;-0,019;-1,002;0,016;-0,003;0;0;12,3;0;190,9;0;12,9;41
658,736;1,51;21,039903;105,489877;1,646;0,001;0,015;0,122;-0,048;0,016;-1,003;0,016;-0,001;0;0;11,4;0;190,9;0;11,9;41
658,985;1,51;21,039903;105,489877;1,646;0,002;0,014;0,116;-0,033;-0,052;-1,001;0,016;-0,004;0;0;13,7;0;190,9;0;14,4;41
659,235;1,5;21,039903;105,489877;1,646;0,002;0,015;0,162;-0,042;0,006;-1,001;0,016;-0,004;0;0;10,8;0;190,9;0;11,3;41
659,484;1,53;21,039903;105,489877;1,646;0,001;0,015;0,101;-0,059;0,048;-1,002;0,014;-0,003;0;0;12,8;0;190,9;0;13,4;41
659,734;1,5;21,039903;105,489877;1,646;0,001;0,015;0,113;-0,053;-0,091;-1,002;0,016;-0,001;0;0;12,8;0;190,9;0;13,4;41
659,984;1,49;21,039903;105,489877;1,647;0,001;0,014;0,16;-0,07;0,003;-1,001;0,016;-0,004;0;0;12,3;0;190,9;0;12,9;41
660,233;1,47;21,039903;105,489877;1,648;0,001;0,015;0,163;-0,081;0,011;-1,002;0,016;-0,003;0;0;12,3;0;190,9;0;12,9;41
660,483;1,47;21,039903;105,489877;1,647;0,001;0,015;0,137;-0,043;-0,009;-1,002;0,015;-0,001;0;0;12,3;0;190,9;0;12,9;41
660,732;1,48;21,039903;105,489877;1,647;0,002;0,015;0,173;-0,048;0,042;-1,002;0,016;-0,003;0;0;12,3;0;190,9;0;12,9;41
660,982;1,49;21,039904;105,489878;1,647;0,002;0,015;0,15;-0,069;-0,04;-1,001;0,016;-0,004;0;0;12,3;0;190,9;0;12,9;41
661,232;1,5;21,039904;105,489878;1,646;0,002;0,015;0,099;-0,029;-0,043;-1,001;0,016;-0,003;0;0;12,8;0;190,9;0;13,4;41
661,481;1,49;21,039904;105,489878;1,647;0,001;0,015;0,087;-0,031;0,031;-1,001;0,015;-0,002;0;0;12,3;0;190,9;0;12,9;41
661,731;1,46;21,039904;105,489878;1,647;0,001;0,015;0,156;-0,08;-0,068;-1,002;0,016;-0,001;0;0;12,3;0;190,9;0;12,9;41
661,98;1,43;21,039904;105,489878;1,648;0,001;0,015;0,143;-0,082;-0,055;-1,002;0,016;-0,004;0;0;12,8;0;190,9;0;13,4;41
662,23;1,42;21,039904;105,489878;1,647;0,001;0,015;0,095;-0,028;0;-1,002;0,016;-0,003;0;0;12,3;0;190,9;0;12,9;41
662,48;1,43;21,039904;105,489878;1,647;0,001;0,015;0,147;-0,013;0,062;-1,002;0,016;-0,001;0;0;11,7;0;190,9;0;12,3;41
662,729;1,44;21,039904;105,489878;1,646;0,002;0,015;0,092;-0,024;-0,033;-1,001;0,016;-0,003;0;0;11,4;0;190,9;0;11,9;41
662,979;1,46;21,039904;105,489878;1,647;0,002;0,015;0,19;0,004;-0,01;-1,001;0,016;-0,004;0;0;13,3;0,1;190,9;0;13,9;41
663,228;1,49;21,039903;105,489878;1,647;0,001;0,016;0,132;-0,082;-0,021;-1,001;0,016;-0,003;0;0;12,3;0,1;190,9;0;12,9;41
663,478;1,47;21,039903;105,489878;1,647;0,001;0,015;0,116;-0,014;0,03;-1,002;0,016;-0,004;0;0;12,3;0;190,9;0;12,9;41
663,728;1,49;21,039903;105,489878;1,647;0,001;0,015;0,12;-0,021;-0,049;-1,001;0,016;-0,001;0;0;11,7;0;190,9;0;12,3;41
663,977;1,48;21,039903;105,489878;1,647;0,002;0,016;0,15;-0,065;-0,009;-1,001;0,016;-0,003;0;0;11,4;0;190,9;0;11,9;41
664,227;1,51;21,039903;105,489878;1,647;0,001;0,016;0,115;-0,043;0,01;-1,001;0,016;-0,004;0;0;10,2;0,1;190,9;0;10,7;41
664,476;1,53;21,039903;105,489878;1,646;0;0,015;0,093;-0,098;-0,029;-1,001;0,016;-0,001;0;0;10,2;0;190,9;0;10,7;41
664,726;1,61;21,039903;105,489878;1,646;0,001;0,015;0,191;-0,013;-0,005;-1,001;0,016;-0,003;0;0;10,2;0;190,9;0;10,7;41
664,976;1,61;21,039903;105,489878;1,645;0,001;0,015;0,098;-0,051;-0,058;-1,002;0,016;-0,003;0;0;11,7;0,1;190,9;0;12,3;41
665,225;1,58;21,039903;105,489878;1,645;0,001;0,015;0,103;0,004;-0,052;-1,002;0,016;0;0;0;11,7;0;190,9;0;12,3;41
665,475;1,58;21,039903;105,489878;1,644;0,002;0,014;0,163;0,011;-0,02;-1;0,016;-0,003;0;0;11,4;0;190,9;0;11,9;41
665,724;1,54;21,039903;105,489878;1,644;0,001;0,014;0,093;0,026;-0,01;-1,004;0,015;0,001;0;0;11,7;0,1;190,9;0;12,3;41
665,974;1,55;21,039902;105,489878;1,644;0,001;0,015;0,145;-0,071;0;-1;0,012;0;0;0;11,4;0;190,9;0;11,9;41
666,224;1,52;21,039902;105,489878;1,644;0,001;0,014;0,074;-0,007;-0,06;-1,002;0,015;-0,006;0;0;10,8;0;190,9;0;11,3;41
666,473;1,52;21,039902;105,489878;1,643;0,001;0,014;0,082;-0,05;-0,013;-1,005;0,017;-0,001;0;0;12,3;0;190,9;0;12,9;41
666,723;1,52;21,039902;105,489878;1,642;0,001;0,015;0,138;-0,019;-0,006;-1,001;0,016;-0,002;0;0;10,8;0,1;190,9;0;11,3;41
666,972;1,55;21,039901;105,489878;1,641;0,001;0,014;0,131;-0,072;-0,121;-1,007;0,013;0;0;0;10,8;0;190,9;0;11,3;41
667,222;1,53;21,039902;105,489878;1,64;0,001;0,015;0,068;-0,093;0,018;-1;0,019;-0,006;0;0;9,6;0;190,9;0;10,1;41
667,472;1,54;21,039901;105,489878;1,64;-0,001;0,015;0,148;-0,048;-0,052;-0,998;0,022;0,013;0;0;11,4;0;190,9;0;11,9;41
667,721;1,56;21,039901;105,489878;1,638;0,002;0,014;0,179;-0,057;-0,107;-1,001;0,013;-0,011;0;0;10,2;0;190,9;0;10,7;41
667,971;1,52;21,039901;105,489878;1,638;0;0,015;0,205;-0,009;-0,046;-1,006;0,016;-0,003;0;0;10,8;0;190,9;0;11,3;41
668,22;1,52;21,0399;105,489878;1,635;0,001;0,014;0,118;-0,045;0,004;-1,001;0,017;-0,001;0;0;10,8;0;190,9;0;11,3;41
668,47;1,53;21,039901;105,489878;1,633;0,001;0,016;0,139;0,001;-0,1;-1,005;0,02;-0,002;0;0;10,8;0;190,9;0;11,3;41
668,72;1,5;21,039901;105,489878;1,627;0,003;0,014;0,109;-0,077;-0,045;-1,002;0,003;0;0;0;11,7;0;190,9;0;12,3;41
668,969;1,49;21,0399;105,489878;1,631;0;0,014;0,218;-0,028;0,051;-1;0,02;-0,003;0;0;10,8;0,1;190,9;0;11,3;41
669,219;1,47;21,0399;105,489878;1,632;0;0,015;0,072;-0,031;-0,167;-1;0,007;-0,004;0;0;11,7;0;190,9;0;12,3;41
669,468;1,47;21,0399;105,489878;1,632;0,001;0,017;0,134;-0,001;0,098;-1,008;0,022;-0,001;0;0;10,8;0;190,9;0;11,3;41
669,718;1,47;21,0399;105,489878;1,633;0;0,015;0,17;0,035;0,119;-1;0,008;-0,003;0;0;11,4;0;190,9;0;11,9;41
669,968;1,46;21,0399;105,489878;1,632;0,002;0,015;0,168;0,028;-0,048;-1,004;0,012;0;0;0;12,3;0;190,9;0;12,9;41
670,217;1,46;21,0399;105,489878;1,629;0,002;0,016;0,126;-0,039;-0,08;-1,003;0,018;-0,007;0;0;10,8;0;190,9;0;11,3;41
670,467;1,46;21,0399;105,489877;1,625;0,002;0,015;0,156;-0,136;0,059;-0,999;0,015;-0,003;0;0;11,7;0;190,9;0;12,3;41
670,716;1,48;21,0399;105,489877;1,616;0,001;0,015;0,052;0,021;-0,099;-1,005;0,018;-0,005;0;0;10,2;0;190,9;0;10,7;41
670,966;1,5;21,0399;105,489877;1,608;0,002;0,014;0,115;-0,051;-0,097;-1;0,018;-0,004;0;0;11,4;0;190,9;0;11,9;41
671,216;1,48;21,0399;105,489877;1,611;0,002;0,014;0,19;-0,05;0,077;-0,999;0,012;-0,004;0;0;11,4;0;190,9;0;11,9;41
671,465;1,48;21,0399;105,489877;1,62;0;0,016;0,068;0,021;-0,069;-1,007;0,017;-0,004;0;0;12,8;0;190,9;0;13,4;41
671,715;1,5;21,0399;105,489877;1,624;0,002;0,016;0,138;-0,079;0,029;-1,005;0,013;-0,003;0;0;11,7;0;190,9;0;12,3;41
671,964;1,52;21,0399;105,489877;1,626;0;0,015;0,038;-0,003;-0,118;-1,001;-0,001;0,004;0;0;11,7;0;190,9;0;12,3;41
672,214;1,52;21,0399;105,489877;1,63;0,003;0,017;0,137;-0,036;0,057;-1,002;0,024;-0,004;0;0;11,7;0;190,9;0;12,3;41
672,464;1,53;21,0399;105,489877;1,632;0,001;0,015;0,124;-0,025;-0,047;-1,003;0,018;-0,004;0;0;11,7;0;190,9;0;12,3;41
672,713;1,52;21,0399;105,489877;1,634;0,002;0,015;0,219;-0,04;-0,019;-1,001;0,017;-0,002;0;0;11,7;0;190,9;0;12,3;41
672,963;1,49;21,0399;105,489877;1,634;0,002;0,015;0,122;0,018;-0,069;-1,001;0,018;-0,005;0;0;11,4;0;190,9;0;11,9;41
673,212;1,5;21,0399;105,489877;1,635;0,001;0,015;0,127;-0,073;-0,029;-1,001;0,015;0;0;0;11,7;0;190,9;0;12,3;41
673,462;1,51;21,0399;105,489877;1,636;0,001;0,014;0,085;-0,025;-0,069;-1,001;0,013;-0,003;0;0;11,4;0,1;190,9;0;11,9;41
673,712;1,51;21,0399;105,489877;1,636;0,001;0,015;0,178;-0,097;-0,099;-1,004;0,015;0;0;0;11,4;0;190,9;0;11,9;41
673,961;1,48;21,0399;105,489877;1,635;0,003;0,014;0,036;-0,035;-0,006;-1;0,011;-0,005;0;0;12,3;0;190,9;0;12,9;41
674,211;1,54;21,0399;105,489877;1,635;0;0,015;0,138;-0,096;0,031;-1,003;0,02;0,001;0;0;12,3;0;190,9;0;12,9;41
674,46;1,53;21,0399;105,489877;1,634;0,001;0,014;0,08;-0,039;-0,039;-1,004;0,012;-0,008;0;0;11,7;0,1;190,9;0;12,3;41
674,71;1,49;21,0399;105,489877;1,633;0,001;0,015;0,092;-0,081;-0,04;-1,006;0,022;0,001;0;0;11,7;0;190,9;0;12,3;41
674,96;1,5;21,0399;105,489877;1,632;0,002;0,015;0,139;0;0,004;-1,006;0,015;-0,011;0;0;11,7;0;190,9;0;12,3;41
675,209;1,54;21,0399;105,489877;1,632;0;0,014;0,098;-0,074;-0,028;-1,005;0,011;-0,001;0;0;11,7;0;190,9;0;12,3;41
675,459;1,54;21,0399;105,489877;1,63;0,001;0,015;0,136;-0,021;-0,084;-1,002;0,018;0;0;0;11,4;0;190,9;0;11,9;41
675,708;1,57;21,0399;105,489877;1,628;0,002;0,015;0,178;0,007;0,115;-1,006;0,015;-0,009;0;0;11,7;0;190,9;0;12,3;41
675,958;1,53;21,0399;105,489877;1,627;0,001;0,014;0,023;-0,065;-0,181;-1,009;0,02;0,007;0;0;11,7;0;190,9;0;12,3;41
676,208;1,53;21,0399;105,489878;1,632;0;0,015;0,272;-0,08;0,114;-1,012;0,017;0,002;0;0;11,7;0;190,9;0;12,3;41
676,457;1,52;21,0399;105,489878;1,633;0;0,015;0,035;-0,117;-0,159;-1,004;0,017;-0,006;0;0;11,7;0;190,9;0;12,3;41
676,707;1,53;21,0399;105,489878;1,637;0,002;0,016;0,254;-0,038;0,05;-0,999;0,021;-0,005;0;0;11,7;0;190,9;0;12,3;41
676,956;1,55;21,0399;105,489878;1,637;0;0,015;0,003;-0,035;-0,021;-1,002;0,014;-0,005;0;0;11,7;0;190,9;0;12,3;41
677,206;1,53;21,0399;105,489878;1,638;0,001;0,015;0,174;-0,057;-0,042;-1,002;0,012;-0,005;0;0;11,4;0,1;190,9;0;11,9;41
677,456;1,55;21,0399;105,489878;1,637;0;0,014;0,08;-0,02;-0,057;-1,002;0,01;-0,006;0;0;11,7;0;190,9;0;12,3;41
677,705;1,55;21,0399;105,489878;1,634;0,001;0,015;0,049;-0,031;-0,114;-1,001;0,021;0;0;0;11,7;0;190,9;0;12,3;41
677,955;1,54;21,0399;105,489878;1,626;0,001;0,014;0,14;-0,024;0,044;-1,001;0,013;0;0;0;11,4;0;190,9;0;11,9;41
678,204;1,55;21,039901;105,489878;1,62;0,001;0,015;0,115;-0,083;-0,041;-1,005;0,012;-0,001;0;0;11,4;0;190,9;0;11,9;41
678,454;1,55;21,039901;105,489878;1,613;0;0,015;0,113;-0,017;-0,027;-1,006;0,016;-0,005;0;0;12,3;0;190,9;0;12,9;41
678,704;1,6;21,039901;105,489878;1,607;0;0,014;0,111;-0,082;-0,034;-1,001;0,017;0;0;0;11,7;0;190,9;0;12,3;41
678,953;1,62;21,039901;105,489878;1,602;0,001;0,014;0,081;0,025;0,006;-1,001;0,017;-0,005;0;0;11,7;0;190,9;0;12,3;41
679,203;1,63;21,039901;105,489878;1,597;0;0,014;0,124;-0,109;0,008;-1,003;0,013;0;0;0;10,8;0;190,9;0;11,3;41
679,452;1,63;21,039901;105,489879;1,593;0;0,014;0,156;-0,037;-0,019;-1;0,014;-0,001;0;0;11,7;0;190,9;0;12,3;41
679,702;1,63;21,039901;105,489879;1,592;0;0,014;0,179;0,006;-0,04;-1,001;0,013;0;0;0;11,7;0;190,9;0;12,3;41
679,952;1,6;21,039901;105,489879;1,595;0,002;0,015;0,138;-0,056;0,001;-1,004;0,018;-0,007;0;0;11,7;0;190,9;0;12,3;41
680,201;1,59;21,039901;105,489879;1,605;0;0,015;0,099;0,004;0,012;-1,005;0,015;0;0;0;11,7;0;190,9;0;12,3;41
680,451;1,58;21,039901;105,489879;1,615;0,001;0,015;0,229;-0,032;0,016;-1,004;0,012;0,004;0;0;11,7;0;190,9;0;12,3;41
680,7;1,53;21,039901;105,489879;1,627;0,001;0,015;0,111;-0,037;-0,153;-1,003;0,017;-0,005;0;0;11,7;0;190,9;0;12,3;41
680,95;1,53;21,039901;105,489879;1,637;0;0,016;0,182;-0,063;0,054;-1,002;0,017;0;0;0;11,7;0;190,9;0;12,3;41
681,2;1,54;21,039901;105,489879;1,645;0,001;0,015;0,172;-0,026;0,039;-1,005;0,014;-0,002;0;0;11,7;0;190,9;0;12,3;41
681,449;1,52;21,039901;105,489879;1,652;0;0,014;0,146;-0,075;-0,103;-1,005;0,017;0;0;0;11,7;0;190,9;0;12,3;41
681,699;1,53;21,039901;105,489879;1,658;0;0,015;0,093;-0,035;-0,018;-1,002;0,017;-0,005;0;0;11,7;0;190,9;0;12,3;41
681,948;1,55;21,039901;105,489879;1,662;0;0,014;0,102;-0,059;-0,091;-1,002;0,015;0;0;0;12,3;0;190,9;0;12,9;41
682,198;1,59;21,039901;105,489879;1,665;0,001;0,014;0,116;-0,003;-0,153;-1,004;0,016;0;0;0;12,3;0;190,9;0;12,9;41
682,448;1,55;21,039901;105,489879;1,668;0;0,014;0,142;-0,015;-0,065;-1,001;0,015;-0,001;0;0;12,3;0;190,9;0;12,9;41
682,697;1,52;21,039901;105,489879;1,671;0;0,014;0,102;0,002;0,03;-1,001;0,017;-0,003;0;0;11,7;0;190,9;0;12,3;41
682,947;1,51;21,039901;105,489879;1,669;0;0,013;0,112;0,093;-0,014;-1,006;0,013;-0,009;0;0;11,7;0,1;190,9;0;12,3;41
683,196;1,5;21,039901;105,489879;1,666;0,001;0,017;0,14;0,013;0,006;-0,997;0,026;0;0;0;12,3;0;190,9;0;12,9;41
683,446;1,51;21,039901;105,489879;1,66;0,001;0,014;0,097;0,005;-0,004;-1;0,01;-0,007;0;0;11,7;0;190,9;0;12,3;41
683,696;1,51;21,039901;105,489879;1,657;0;0,015;0,164;-0,04;-0,047;-1,002;0,017;0,006;0;0;12,3;0;190,9;0;12,9;41
683,945;1,49;21,039902;105,489879;1,653;0,002;0,014;0,143;-0,02;-0,02;-1,001;0,014;-0,008;0;0;12,3;0,1;190,9;0;12,9;41
684,195;1,51;21,039902;105,489879;1,652;0,001;0,015;0,091;-0,01;0,026;-1,003;0,017;0;0;0;11,7;0;190,9;0;12,3;41
684,444;1,49;21,039902;105,489879;1,65;0,002;0,014;0,205;-0,037;0,006;-1,002;0,014;-0,005;0;0;11,7;0;190,9;0;12,3;41
684,694;1,48;21,039902;105,489879;1,65;0,001;0,016;0,089;-0,048;-0,051;-1,002;0,017;-0,002;0;0;11,7;0;190,9;0;12,3;41
684,944;1,49;21,039902;105,489879;1,649;0,001;0,016;0,159;-0,074;0,032;-1,002;0,015;-0,005;0;0;12,3;0,1;190,9;0;12,9;41
685,193;1,51;21,039902;105,489879;1,648;0,001;0,016;0,145;-0,041;-0,035;-1,001;0,017;0;0;0;11,7;0;190,9;0;12,3;41
685,443;1,51;21,039902;105,489879;1,648;0,002;0,016;0,15;-0,028;0,023;-1,002;0,017;-0,004;0;0;11,7;0;190,9;0;12,3;41
685,692;1,52;21,039902;105,489879;1,647;0,001;0,015;0,145;-0,059;-0,057;-1,002;0,017;-0,004;0;0;12,3;0;190,9;0;12,9;41
685,942;1,52;21,039901;105,489879;1,647;0,001;0,015;0,131;-0,044;-0,022;-1,003;0,016;-0,001;0;0;11,7;0,1;190,9;0;12,3;41
686,192;1,49;21,039901;105,489879;1,647;0,001;0,015;0,106;-0,063;-0,066;-1,003;0,016;-0,003;0;0;11,7;0;190,9;0;12,3;41
686,441;1,48;21,039901;105,489879;1,646;0,001;0,015;0,155;-0,024;-0,002;-1,003;0,017;-0,002;0;0;12,3;0;190,9;0;12,9;41
686,691;1,51;21,039901;105,489879;1,645;0,001;0,016;0,124;-0,026;0,023;-1,002;0,016;-0,002;0;0;11,7;0;190,9;0;12,3;41
686,94;1,52;21,039901;105,489878;1,645;0,001;0,016;0,166;-0,062;-0,069;-1,002;0,017;-0,001;0;0;12,3;0,1;190,9;0;12,9;41
687,19;1,5;21,039901;105,489878;1,645;0,001;0,015;0,071;-0,062;0,005;-1,003;0,017;-0,002;0;0;11,7;0;190,9;0;12,3;41
687,44;1,52;21,039901;105,489878;1,645;0,001;0,016;0,147;-0,04;-0,03;-1,002;0,016;-0,002;0;0;11,7;0;190,9;0;12,3;41
687,689;1,54;21,039901;105,489878;1,645;0;0,015;0,117;-0,06;-0,028;-1,001;0,017;-0,002;0;0;11,7;0;190,9;0;12,3;41
687,939;1,51;21,039901;105,489878;1,645;0,001;0,015;0,15;-0,063;-0,045;-1,001;0,017;-0,002;0;0;11,7;0;190,9;0;12,3;41
688,188;1,54;21,039901;105,489878;1,645;0,001;0,015;0,129;-0,032;-0,028;-1,002;0,016;-0,002;0;0;12,8;0,1;190,9;0;13,4;41
688,438;1,52;21,039901;105,489878;1,645;0,001;0,015;0,166;0,007;-0,014;-1,002;0,016;-0,001;0;0;11,7;0;190,9;0;12,3;41
688,688;1,55;21,039901;105,489878;1,645;0,001;0,015;0,146;-0,077;-0,023;-1,003;0,016;-0,002;0;0;11,7;0;190,9;0;12,3;41
688,937;1,55;21,039901;105,489878;1,645;0,001;0,016;0,125;-0,058;0,036;-1,003;0,017;-0,003;0;0;12,3;0;190,9;0;12,9;41
689,187;1,52;21,039901;105,489878;1,645;0,001;0,016;0,188;-0,059;0,014;-1,002;0,016;-0,002;0;0;11,7;0;190,9;0;12,3;41
689,436;1,51;21,039901;105,489878;1,646;0,001;0,016;0,133;0,002;-0,039;-1,002;0,016;-0,002;0;0;11,7;0;190,9;0;12,3;41
689,686;1,51;21,039901;105,489878;1,645;0,001;0,016;0,175;-0,044;-0,01;-1,002;0,016;-0,002;0;0;12,3;0;190,9;0;12,9;41
689,936;1,49;21,039901;105,489877;1,645;0,001;0,015;0,1;-0,063;-0,022;-1,003;0,017;-0,002;0;0;12,3;0;190,9;0;12,9;41
690,185;1,51;21,039901;105,489877;1,645;0,001;0,016;0,124;0;0,024;-1,003;0,017;-0,002;0;0;12,3;0;190,9;0;12,9;41
690,435;1,51;21,039901;105,489877;1,645;0,001;0,016;0,171;0,002;0,039;-1,002;0,016;-0,002;0;0;11,7;0;190,9;0;12,3;41
690,684;1,52;21,039901;105,489877;1,645;0;0,016;0,138;-0,089;-0,035;-1,001;0,016;-0,002;0;0;11,7;0;190,9;0;12,3;41
690,934;1,52;21,039901;105,489877;1,645;0,001;0,016;0,125;-0,047;0,013;-1,001;0,017;-0,002;0;0;12,3;0;190,9;0;12,9;41
691,184;1,5;21,039901;105,489877;1,645;0,001;0,016;0,152;-0,018;-0,056;-1,002;0,016;-0,002;0;0;11,7;0;190,9;0;12,3;41
691,433;1,49;21,039901;105,489877;1,645;0;0,016;0,169;-0,105;-0,049;-1,002;0,016;-0,002;0;0;11,7;0;190,9;0;12,3;41
691,683;1,46;21,039901;105,489877;1,645;0,001;0,016;0,142;-0,05;0,048;-1,002;0,017;-0,002;0;0;11,4;0;190,9;0;11,9;41
691,932;1,49;21,039901;105,489877;1,645;0,001;0,015;0,076;0,005;-0,022;-1,002;0,017;-0,002;0;0;12,3;0;190,9;0;12,9;41
692,182;1,51;21,039901;105,489877;1,645;0,001;0,016;0,124;-0,015;-0,026;-1,002;0,017;-0,002;0;0;12,3;0;190,9;0;12,9;41
692,432;1,51;21,039901;105,489877;1,645;0,001;0,016;0,11;-0,052;-0,005;-1,002;0,016;-0,002;0;0;12,3;0;190,9;0;12,9;41
692,681;1,54;21,039901;105,489877;1,644;0,001;0,016;0,148;-0,041;0,043;-1,003;0,016;-0,002;0;0;11,7;0;190,9;0;12,3;41
692,931;1,54;21,039901;105,489877;1,644;0;0,015;0,128;-0,065;-0,05;-1,003;0,017;-0,002;0;0;11,7;0;190,9;0;12,3;41
693,18;1,53;21,039901;105,489877;1,645;0;0,015;0,146;-0,078;-0,095;-1,002;0,016;-0,002;0;0;12,3;0;190,9;0;12,9;41
693,43;1,55;21,039901;105,489877;1,644;0,001;0,015;0,145;-0,044;-0,045;-1,001;0,017;-0,002;0;0;11,7;0;190,9;0;12,3;41
693,68;1,52;21,039901;105,489877;1,645;0,001;0,015;0,11;-0,083;-0,058;-1,003;0,016;-0,002;0;0;12,3;0;190,9;0;12,9;41
693,929;1,52;21,039901;105,489877;1,645;0;0,015;0,153;-0,054;-0,008;-1,003;0,017;-0,002;0;0;12,3;0;190,9;0;12,9;41
694,179;1,5;21,0399;105,489877;1,644;0;0,015;0,088;-0,079;0,015;-1,002;0,016;-0,002;0;0;11,7;0;190,9;0;12,3;41
694,428;1,48;21,0399;105,489877;1,644;0,001;0,015;0,088;0,006;0,033;-1,001;0,017;-0,002;0;0;11,7;0;190,9;0;12,3;41
694,678;1,49;21,0399;105,489877;1,645;0,001;0,015;0,094;-0,032;-0,064;-1,002;0,016;-0,002;0;0;11,7;0;190,9;0;12,3;41
694,928;1,5;21,0399;105,489877;1,645;0,001;0,016;0,158;-0,01;-0,01;-1,002;0,017;-0,002;0;0;11,7;0;190,9;0;12,3;41
695,177;1,51;21,0399;105,489877;1,645;0,001;0,016;0,131;-0,088;0;-1,002;0,017;-0,003;0;0;11,7;0;190,9;0;12,3;41
695,427;1,51;21,0399;105,489877;1,645;0,001;0,016;0,17;0,046;0,007;-1,003;0,017;-0,002;0;0;11,7;0;190,9;0;12,3;41
695,676;1,53;21,0399;105,489877;1,644;0,001;0,016;0,038;-0,047;-0,043;-1,002;0,016;-0,002;0;0;12,3;0;190,9;0;12,9;41
695,926;1,52;21,0399;105,489877;1,644;0,001;0,016;0,092;0,036;-0,009;-1,002;0,017;-0,002;0;0;11,7;0;190,9;0;12,3;41
696,176;1,54;21,0399;105,489877;1,644;0,001;0,016;0,128;-0,02;0,013;-1,001;0,016;-0,002;0;0;12,3;0;190,9;0;12,9;41
696,425;1,55;21,0399;105,489877;1,644;0,002;0,016;0,16;-0,053;-0,008;-1,002;0,016;-0,003;0;0;12,3;0;190,9;0;12,9;41
696,675;1,54;21,0399;105,489877;1,644;0,001;0,016;0,151;-0,09;-0,001;-1,003;0,017;-0,002;0;0;11,7;0;190,9;0;12,3;41
696,924;1,56;21,0399;105,489877;1,645;0,001;0,015;0,119;-0,093;-0,069;-1,002;0,016;-0,002;0;0;11,7;0;190,9;0;12,3;41
697,174;1,57;21,0399;105,489877;1,645;0,001;0,015;0,125;-0,038;-0,044;-1,002;0,017;-0,002;0;0;12,3;0;190,9;0;12,9;41
697,424;1,58;21,0399;105,489877;1,645;0,001;0,015;0,128;-0,082;-0,071;-1,001;0,016;-0,002;0;0;12,3;0;190,9;0;12,9;41
697,673;1,57;21,0399;105,489877;1,645;0,001;0,015;0,183;-0,036;-0,013;-1,002;0,016;-0,002;0;0;12,3;0;190,9;0;12,9;41
697,923;1,57;21,0399;105,489877;1,644;0;0,016;0,108;-0,074;0,001;-1,002;0,016;-0,002;0;0;12,3;0;190,9;0;12,9;41
698,172;1,59;21,0399;105,489877;1,645;0,001;0,016;0,097;0,013;-0,027;-1,003;0,017;-0,002;0;0;12,3;0;190,9;0;12,9;41
698,422;1,56;21,0399;105,489877;1,645;0,001;0,015;0,13;-0,001;-0,035;-1,002;0,016;-0,002;0;0;11,7;0;190,9;0;12,3;41
698,672;1,56;21,0399;105,489877;1,645;0,001;0,015;0,155;0,007;0,014;-1,002;0,017;-0,002;0;0;12,3;0;190,9;0;12,9;41
698,921;1,54;21,0399;105,489877;1,645;0,001;0,015;0,114;0,013;-0,021;-1,002;0,017;-0,002;0;0;12,3;0,1;190,9;0;12,9;41
699,171;1,56;21,0399;105,489877;1,644;0,001;0,015;0,094;-0,015;-0,044;-1,002;0,017;-0,002;0;0;11,7;0;190,9;0;12,3;41
699,42;1,56;21,0399;105,489877;1,644;0,001;0,015;0,124;-0,006;-0,009;-1,002;0,017;-0,002;0;0;11,7;0;190,9;0;12,3;41
699,67;1,56;21,0399;105,489878;1,644;0,001;0,016;0,142;-0,04;0,057;-1,002;0,017;-0,002;0;0;12,3;0;190,9;0;12,9;41
699,92;1,55;21,0399;105,489877;1,645;0,001;0,015;0,161;-0,043;-0,049;-1,002;0,017;-0,002;0;0;12,3;0;190,9;0;12,9;41
700,169;1,54;21,0399;105,489877;1,646;0,001;0,016;0,159;-0,021;-0,006;-1,002;0,017;-0,002;0;0;11,7;0;190,9;0;12,3;41
700,419;1,57;21,039899;105,489877;1,645;0,001;0,015;0,109;0,007;-0,005;-1,002;0,017;-0,002;0;0;12,3;0;190,9;0;12,9;41
700,668;1,55;21,039899;105,489877;1,645;0,001;0,015;0,157;0,009;-0,04;-1,002;0,017;-0,002;0;0;11,7;0;190,9;0;12,3;41
700,918;1,58;21,039899;105,489877;1,646;0,001;0,015;0,105;-0,02;0,006;-1,002;0,017;-0,002;0;0;11,7;0;190,9;0;12,3;41
701,168;1,56;21,039899;105,489877;1,646;0,001;0,015;0,16;-0,003;0,023;-1,001;0,017;-0,002;0;0;12,3;0;190,9;0;12,9;41
701,417;1,52;21,039898;105,489877;1,646;0,001;0,015;0,169;-0,045;-0,008;-1,003;0,016;-0,002;0;0;12,3;0,1;190,9;0;12,9;41
701,667;1,54;21,039898;105,489877;1,646;0,001;0,015;0,146;-0,034;-0,05;-1,003;0,017;-0,003;0;0;11,7;0,3;190,9;0;12,3;41
701,916;1,54;21,039898;105,489877;1,646;0,001;0,015;0,132;-0,014;-0,036;-1,003;0,017;-0,002;0;0;12,3;0;190,9;0;12,9;41
702,166;1,53;21,039898;105,489877;1,646;0,001;0,016;0,088;-0,054;-0,001;-1,003;0,017;-0,001;0;0;12,3;0,1;190,9;0;12,9;41
702,416;1,54;21,039898;105,489877;1,646;0,001;0,015;0,114;-0,078;0;-1,003;0,017;-0,003;0;0;11,7;0,3;190,9;0;12,3;41
702,665;1,58;21,039898;105,489877;1,646;0,001;0,016;0,091;-0,033;-0,003;-1,003;0,017;-0,002;0;0;12,3;0;190,9;0;12,9;41
702,915;1,58;21,039898;105,489877;1,647;0;0,015;0,18;-0,053;-0,011;-1,003;0,016;0;0;0;12,3;0;190,9;0;12,9;41
703,164;1,53;21,039898;105,489877;1,647;0,001;0,016;0,132;-0,064;0,029;-1,002;0,017;-0,003;0;0;12,3;0;190,9;0;12,9;41
703,414;1,54;21,039898;105,489877;1,647;0,001;0,016;0,189;-0,059;-0,003;-1,003;0,016;-0,003;0;0;11,7;0,1;190,9;0;12,3;41
703,664;1,54;21,039898;105,489877;1,647;0,001;0,016;0,11;-0,028;-0,044;-1;0,017;-0,005;0;0;12,3;0;190,9;0;12,9;41
703,913;1,57;21,039898;105,489877;1,646;0,001;0,015;0,103;-0,014;-0,035;-1,003;0,016;-0,001;0;0;11,7;0,1;190,9;0;12,3;41
704,163;1,59;21,039898;105,489877;1,646;0,001;0,015;0,157;0;-0,006;-1,003;0,015;-0,002;0;0;12,3;0,1;190,9;0;12,9;41
704,412;1,64;21,039898;105,489877;1,645;0,001;0,015;0,177;-0,064;-0,082;-1,003;0,017;-0,002;0;0;12,8;0;190,9;0;13,4;41
704,662;1,62;21,039898;105,489877;1,645;0,001;0,015;0,126;-0,04;-0,024;-1,001;0,015;-0,003;0;0;11,7;0;190,9;0;12,3;41
704,912;1,61;21,039898;105,489877;1,646;0,001;0,014;0,108;-0,034;-0,036;-1,002;0,015;0;0;0;12,3;0;190,9;0;12,9;41
705,161;1,6;21,039898;105,489876;1,646;0,001;0,014;0,136;-0,057;-0,011;-1,002;0,017;-0,002;0;0;11,7;0;190,9;0;12,3;41
705,411;1,59;21,039898;105,489876;1,646;0,001;0,015;0,109;-0,053;-0,017;-1,002;0,017;-0,003;0;0;11,7;0;190,9;0;12,3;41
705,66;1,6;21,039898;105,489876;1,646;0,001;0,015;0,163;-0,079;0,025;-1,002;0,017;-0,002;0;0;11,7;0;190,9;0;12,3;41
705,91;1,59;21,039898;105,489876;1,647;0,001;0,015;0,077;-0,036;-0,021;-1,002;0,015;-0,002;0;0;11,7;0,1;190,9;0;12,3;41
706,16;1,57;21,039898;105,489876;1,646;0,001;0,015;0,122;-0,071;-0,055;-1,002;0,017;-0,002;0;0;11,7;0,3;190,9;0;12,3;41
706,409;1,6;21,039898;105,489876;1,646;0,001;0,015;0,138;0,04;-0,057;-1,003;0,015;-0,002;0;0;12,3;0,1;190,9;0;12,9;41
706,659;1,63;21,039898;105,489876;1,646;0,001;0,015;0,142;-0,036;0,003;-1,002;0,016;-0,002;0;0;12,3;0,1;190,9;0;12,9;41
706,908;1,6;21,039898;105,489877;1,646;0,002;0,015;0,143;-0,017;-0,019;-1,002;0,015;-0,003;0;0;12,3;0;190,9;0;12,9;41
707,158;1,62;21,039898;105,489877;1,647;0,001;0,015;0,14;-0,086;-0,028;-1;0,015;-0,004;0;0;12,3;0,1;190,9;0;12,9;41
707,408;1,61;21,039898;105,489877;1,647;0,001;0,015;0,068;-0,046;-0,005;-1,001;0,016;-0,002;0;0;12,3;0,1;190,9;0;12,9;41
707,657;1,62;21,039898;105,489877;1,647;0;0,015;0,127;-0,036;-0,026;-1,009;0,018;0,001;0;0;12,3;0;190,9;0;12,9;41
707,907;1,61;21,039898;105,489877;1,648;0,001;0,015;0,161;-0,007;-0,037;-1,004;0,018;-0,003;0;0;12,3;0;190,9;0;12,9;41
708,156;1,59;21,039898;105,489877;1,648;0,001;0,015;0,08;-0,024;-0,09;-1,001;0,013;-0,002;0;0;12,8;0;190,9;0;13,4;41
708,406;1,6;21,039898;105,489878;1,648;0,001;0,014;0,169;-0,059;0,013;-1,001;0,012;-0,001;0;0;12,8;0;190,9;0;13,4;41
708,656;1,57;21,039899;105,489878;1,648;0,001;0,015;0,139;-0,044;-0,058;-1,003;0,017;-0,001;0;0;12,3;0;190,9;0;12,9;41
708,905;1,58;21,039898;105,489878;1,648;0,001;0,015;0,178;-0,048;-0,06;-1,002;0,017;-0,005;0;0;11,7;0,1;190,9;0;12,3;41
709,155;1,57;21,039899;105,489878;1,648;0,001;0,015;0,061;-0,018;0,001;-1,002;0,017;-0,002;0;0;11,7;0;190,9;0;12,3;41
709,404;1,57;21,039899;105,489878;1,647;0,001;0,015;0,09;-0,055;0,001;-1,002;0,016;-0,001;0;0;11,7;0;190,9;0;12,3;41
709,654;1,58;21,039899;105,489878;1,647;0,001;0,015;0,145;0,01;-0,067;-1,003;0,016;-0,005;0;0;12,8;0,1;190,9;0;13,4;41
709,904;1,58;21,039899;105,489878;1,647;0,001;0,016;0,088;-0,086;-0,067;-1,002;0,017;-0,003;0;0;11,7;0,1;190,9;0;12,3;41
710,153;1,57;21,039899;105,489878;1,647;0,001;0,015;0,154;-0,028;-0,017;-1,002;0,017;-0,001;0;0;12,8;0;190,9;0;13,4;41
710,403;1,58;21,039899;105,489878;1,648;0,001;0,016;0,155;-0,078;-0,002;-1,002;0,017;-0,002;0;0;12,3;0;190,9;0;12,9;41
710,652;1,57;21,039899;105,489879;1,648;0;0,016;0,173;-0,132;-0,01;-1,002;0,017;-0,002;0;0;12,3;0;190,9;0;12,9;41
710,902;1,58;21,039899;105,489879;1,648;0;0,016;0,077;-0,078;0,005;-1,002;0,017;-0,002;0;0;12,3;0;190,9;0;12,9;41
711,152;1,58;21,0399;105,489879;1,648;0;0,016;0,08;-0,046;-0,081;-1,002;0,017;-0,002;0;0;12,3;0;190,9;0;12,9;41
711,401;1,57;21,0399;105,489879;1,648;0,001;0,016;0,165;-0,08;-0,046;-1,002;0,017;-0,002;0;0;12,3;0;190,9;0;12,9;41
711,651;1,59;21,0399;105,489879;1,648;0,001;0,016;0,103;-0,013;-0,002;-1,002;0,017;-0,002;0;0;12,3;0;190,9;0;12,9;41
711,9;1,58;21,0399;105,489879;1,648;0,001;0,015;0,152;-0,03;-0,094;-1,002;0,017;-0,001;0;0;11,7;0;190,9;0;12,3;41
712,15;1,6;21,0399;105,489879;1,648;0;0,016;0,141;-0,079;-0,003;-1,002;0,017;-0,002;0;0;12,3;0,1;190,9;0;12,9;41
712,4;1,63;21,0399;105,489879;1,648;0,001;0,016;0,108;-0,024;-0,042;-1,003;0,017;-0,003;0;0;12,3;0,1;190,9;0;12,9;41
712,649;1,62;21,0399;105,489879;1,648;0,001;0,016;0,067;-0,044;-0,06;-1,002;0,017;-0,002;0;0;12,3;0;190,9;0;12,9;41
712,899;1,62;21,0399;105,48988;1,648;0,001;0,016;0,172;-0,046;-0,007;-1,003;0,017;-0,002;0;0;12,3;0,1;190,9;0;12,9;41
713,148;1,63;21,039901;105,48988;1,648;0,001;0,016;0,145;-0,056;-0,006;-1,002;0,017;-0,002;0;0;11,7;0;190,9;0;12,3;41
713,398;1,63;21,039901;105,48988;1,648;0,001;0,015;0,136;-0,009;-0,007;-1,002;0,017;-0,002;0;0;11,7;0;190,9;0;12,3;41
713,648;1,6;21,039901;105,48988;1,649;0;0,016;0,108;-0,042;-0,024;-1,002;0,017;-0,002;0;0;12,3;0;190,9;0;12,9;41
713,897;1,61;21,0399;105,48988;1,648;0;0,015;0,156;-0,068;-0,036;-1,002;0,017;-0,002;0;0;12,8;0;190,9;0;13,4;41
714,147;1,58;21,0399;105,48988;1,648;0,001;0,015;0,078;-0,045;0,001;-1,002;0,017;-0,002;0;0;12,3;0;190,9;0;12,9;41
714,396;1,59;21,039901;105,48988;1,648;0,001;0,015;0,12;-0,044;-0,004;-1,002;0,016;-0,002;0;0;12,3;0,1;190,9;0;12,9;41
714,646;1,62;21,039901;105,48988;1,649;0,001;0,016;0,217;-0,052;0,019;-1,002;0,017;-0,002;0;0;12,3;0,1;190,9;0;12,9;41
714,896;1,62;21,039901;105,48988;1,649;0;0,016;0,112;0,011;0,02;-1,002;0,017;-0,002;0;0;12,3;0;190,9;0;12,9;41
715,145;1,63;21,039901;105,48988;1,648;0,001;0,016;0,13;-0,047;-0,037;-1,002;0,014;-0,001;0;0;12,3;0;190,9;0;12,9;41
715,395;1,63;21,039901;105,48988;1,648;0,001;0,016;0,152;-0,106;0,047;-1,005;0,019;-0,005;0;0;12,8;0;190,9;0;13,4;41
715,644;1,65;21,039901;105,489879;1,648;0;0,015;0,123;-0,025;-0,013;-1,002;0,015;-0,003;0;0;12,3;0;190,9;0;12,9;41
715,894;1,61;21,039902;105,489879;1,648;0,001;0,015;0,114;-0,014;-0,016;-1,003;0,017;0;0;0;12,3;0;190,9;0;12,9;41
716,144;1,59;21,039902;105,489879;1,648;0,001;0,015;0,102;0,039;-0,005;-1,003;0,017;-0,003;0;0;11,7;0;190,9;0;12,3;41
716,393;1,58;21,039902;105,489879;1,648;0,001;0,015;0,153;-0,054;-0,015;-1,003;0,016;-0,004;0;0;11,7;0;190,9;0;12,3;41
716,643;1,59;21,039902;105,489879;1,648;0,001;0,015;0,139;-0,112;0,008;-1,003;0,015;-0,005;0;0;12,3;0;190,9;0;12,9;41
716,892;1,61;21,039903;105,489879;1,648;0,001;0,015;0,142;-0,094;-0,111;-1,002;0,017;-0,004;0;0;11,7;0,1;190,9;0;12,3;41
717,142;1,62;21,039903;105,489879;1,648;0;0,015;0,114;-0,082;-0,052;-1,001;0,02;-0,002;0;0;12,3;0;190,9;0;12,9;42
717,392;1,6;21,039903;105,489879;1,647;0;0,015;0,159;-0,023;0,015;-1,001;0,015;-0,002;0;0;11,7;0;190,9;0;12,3;41
717,641;1,62;21,039904;105,489879;1,647;0,001;0,015;0,168;-0,027;0,067;-1,004;0,014;0;0;0;12,3;0;190,9;0;12,9;41
717,891;1,62;21,039904;105,489879;1,647;0,002;0,015;0,165;0,028;-0,054;-1,004;0,017;-0,003;0;0;12,3;0;190,9;0;12,9;42
718,14;1,65;21,039904;105,489879;1,647;0,001;0,015;0,082;-0,009;-0,036;-1,002;0,017;-0,003;0;0;11,7;0;190,9;0;12,3;42
718,39;1,61;21,039904;105,48988;1,647;0,001;0,015;0,179;-0,053;-0,012;-1,004;0,015;0;0;0;12,3;0;190,9;0;12,9;41
718,64;1,61;21,039904;105,48988;1,647;0,002;0,016;0,159;-0,045;-0,007;-1,004;0,016;-0,005;0;0;11,7;0;190,9;0;12,3;42
718,889;1,62;21,039903;105,489879;1,648;0,001;0,016;0,152;-0,014;0,064;-1,008;0,018;-0,005;0;0;12,3;0,2;190,9;0;12,9;42
719,139;1,63;21,039904;105,48988;1,647;0,003;0,016;0,181;-0,068;0,085;-1,005;0,008;-0,014;0;0;12,3;0,3;190,9;0;12,9;42
719,388;1,64;21,039904;105,48988;1,647;0,003;0,015;0,071;0;-0,041;-1,011;0,014;-0,006;0;0;12,8;0;190,9;0;13,4;42
719,638;1,62;21,039904;105,48988;1,647;0,001;0,015;0,089;-0,038;0,034;-1,006;0,018;-0,004;0;0;11,7;0;190,9;0;12,3;42
719,888;1,65;21,039903;105,48988;1,647;0,001;0,014;0,14;-0,023;0,176;-1,006;0,012;0;0;0;12,3;0,1;190,9;0;12,9;42
720,137;1,67;21,039904;105,48988;1,647;0,001;0,015;0,096;-0,033;-0,095;-1,003;0,02;0,003;0;0;12,3;0;190,9;0;12,9;42
720,387;1,67;21,039904;105,48988;1,647;0,002;0,015;0,204;-0,026;0,035;-1,005;0,015;-0,006;0;0;12,3;0;190,9;0;12,9;42
720,636;1,66;21,039904;105,48988;1,647;0;0,013;0,08;-0,035;-0,027;-1;0,004;-0,003;0;0;11,7;0;190,9;0;12,3;42
720,886;1,69;21,039904;105,48988;1,647;0,004;0,015;0,247;-0,126;0,024;-0,992;0,027;-0,004;0;0;12,3;0,1;190,9;0;12,9;42
721,136;1,68;21,039903;105,48988;1,647;0,001;0,016;0,114;0,02;-0,198;-0,999;0,022;-0,007;0;0;11,7;0,9;190,9;0;12,3;42
721,385;1,67;21,039903;105,489879;1,647;0,002;0,014;0,196;-0,027;0,127;-1,009;0,009;-0,002;0;0;12,8;0,9;190,9;0;13,4;42
721,635;1,64;21,039902;105,489879;1,647;0,001;0,015;0,016;-0,029;-0,209;-1,007;0,021;0,001;0;0;12,3;0,8;190,9;0;12,9;42
721,884;1,66;21,039901;105,489878;1,647;0,003;0,014;0,283;-0,02;0,063;-1,001;0,015;-0,009;0;0;12,3;0,8;190,9;0;12,9;42
722,134;1,66;21,0399;105,489877;1,647;0;0,015;0,061;0,024;-0,079;-1,001;0,018;-0,004;0;0;12,8;1;190,9;0;13,4;42
722,384;1,68;21,039896;105,489876;1,647;0,001;0,014;0,219;-0,157;-0,006;-1,002;0,02;-0,003;0;0;11,7;2,1;190,9;0;12,3;42
722,633;1,65;21,039896;105,489876;1,647;-0,002;0,013;0,123;-0,031;-0,061;-0,999;0,015;0,002;0;0;12,3;0,8;190,9;0;12,9;42
722,883;1,63;21,039894;105,489875;1,647;0,001;0,014;0,13;-0,032;-0,031;-1,002;0,012;0,005;0;0;12,3;0,1;190,9;0;12,9;42
723,132;1,62;21,039894;105,489875;1,647;0,001;0,015;0,061;-0,066;-0,079;-1,003;0,016;-0,007;0;0;12,3;0,1;190,9;0;12,9;42
723,382;1,63;21,039894;105,489876;1,647;0,001;0,014;0,177;-0,076;0,041;-1,004;0,016;-0,001;0;0;12,3;1,2;190,9;0;12,9;42
723,632;1,66;21,039893;105,489876;1,648;0,001;0,015;0,161;-0,054;-0,119;-1,001;0,018;-0,002;0;0;12,3;0,4;190,9;0;12,9;42
723,881;1,63;21,039893;105,489875;1,648;0,002;0,015;0,183;-0,015;0,009;-1,001;0,016;-0,006;0;0;12,3;0,3;190,9;0;12,9;42
724,131;1,68;21,039893;105,489875;1,647;0,001;0,015;0,077;-0,094;-0,037;-1,002;0,016;-0,001;0;0;12,3;0,4;190,9;0;12,9;42
724,38;1,69;21,039893;105,489876;1,647;0,001;0,015;0,158;-0,126;-0,036;-1,001;0,017;0;0;0;12,3;0,2;190,9;0;12,9;42
724,63;1,68;21,039892;105,489875;1,647;0,001;0,014;0,168;0,003;-0,071;-1,008;0,014;-0,007;0;0;12,3;0,4;190,9;0;12,9;42
724,88;1,68;21,039892;105,489874;1,647;0;0,014;0,067;-0,003;-0,128;-1,007;0,016;-0,006;0;0;12,3;0,2;190,9;0;12,9;42
725,129;1,67;21,039891;105,489875;1,647;0,002;0,015;0,107;0,062;0,065;-1,009;0,013;-0,009;0;0;12,3;0,2;190,9;0;12,9;42
725,379;1,65;21,039891;105,489875;1,645;0,002;0,013;0,012;0,011;-0,132;-0,999;0,002;-0,004;0;0;15,7;0,4;190,9;0;16,5;42
725,628;1,67;21,039891;105,489875;1,646;0,005;0,015;0,157;-0,068;0,026;-0,999;0,012;-0,017;0;0;12,3;0,5;190,9;0;12,9;42
725,878;1,67;21,03989;105,489875;1,647;0;0,015;0,072;-0,024;-0,048;-1,003;0,01;0;0;0;12,3;0,2;190,9;0;12,9;42
726,128;1,68;21,039891;105,489876;1,646;0,001;0,015;0,114;-0,116;-0,047;-1;0,017;0;0;0;12,3;0,8;190,9;0;12,9;42
726,377;1,67;21,039891;105,489875;1,647;0;0,015;0,071;-0,065;-0,165;-1,015;0,022;-0,002;0;0;12,8;0,3;190,9;0;13,4;42
726,627;1,68;21,039891;105,489875;1,647;0;0,015;0,121;-0,024;0,025;-1,01;0,02;-0,001;0;0;12,3;0;190,9;0;12,9;42
726,876;1,68;21,039891;105,489875;1,648;0;0,015;0,171;0,041;0,048;-1,014;0,016;-0,004;0;0;12,3;0;190,9;0;12,9;42
727,126;1,7;21,039891;105,489876;1,649;0;0,015;0,141;0,001;-0,123;-1;0,008;0,004;0;0;11,7;0;190,9;0;12,3;42
727,376;1,68;21,039891;105,489876;1,648;0,002;0,016;-0,057;-0,06;-0,102;-0,983;0,018;-0,013;0;0;12,3;0;190,9;0;12,9;42
727,625;1,66;21,03989;105,489876;1,648;0;0,016;0,155;-0,03;0,18;-0,996;0,019;0,002;0;0;12,3;0,1;190,9;0;12,9;42
727,875;1,68;21,03989;105,489876;1,648;0,002;0,016;0,075;-0,029;-0,171;-1,008;0,02;-0,007;0;0;12,3;0,1;190,9;0;12,9;42
728,124;1,69;21,03989;105,489876;1,648;0,001;0,017;0,234;-0,051;0,021;-1,007;0,019;-0,007;0;0;12,3;0,1;190,9;0;12,9;42
728,374;1,67;21,039889;105,489875;1,647;0;0,014;0,164;-0,01;0,031;-1,003;0,011;0;0;0;12,3;0,1;190,9;0;12,9;42
728,624;1,66;21,03989;105,489875;1,648;0,001;0,016;0,072;-0,073;-0,008;-1,001;0,02;0,001;0;0;12,8;0;190,9;0;13,4;42
728,873;1,65;21,039888;105,489874;1,647;0,001;0,013;0,11;-0,025;-0,095;-0,998;0,011;-0,005;0;0;12,3;0,2;190,9;0;12,9;42
729,123;1,66;21,039888;105,489874;1,647;0,002;0,015;0,207;-0,084;0,015;-1,003;0,017;0,001;0;0;11,4;0;190,9;0;11,9;42
729,372;1,67;21,039888;105,489873;1,646;0,002;0,014;0,098;0,02;-0,16;-1,004;0,016;-0,006;0;0;11,7;0,3;190,9;0;12,3;42
729,622;1,69;21,039887;105,489872;1,646;0,002;0,015;0,198;-0,091;0,032;-1,003;0,017;-0,001;0;0;12,3;0,2;190,9;0;12,9;42
729,872;1,7;21,039887;105,489871;1,645;0,001;0,014;0,109;-0,03;-0,123;-1,001;0,013;0;0;0;12,8;0,1;190,9;0;13,4;42
730,121;1,68;21,039887;105,48987;1,645;0,001;0,015;0,093;-0,031;-0,044;-0,994;0,016;-0,006;0;0;12,3;0,1;190,9;0;12,9;42
730,371;1,68;21,039886;105,489871;1,645;0,003;0,013;0,07;-0,032;-0,039;-1,003;0,007;-0,013;0;0;12,8;0,1;190,9;0;13,4;42
730,62;1,67;21,039886;105,48987;1,647;0;0,015;0,208;-0,081;-0,005;-1,004;0,018;0;0;0;12,8;0;190,9;0;13,4;42
730,87;1,69;21,039886;105,48987;1,647;0,001;0,014;0,113;-0,046;-0,081;-1,002;0,02;0;0;0;12,3;0,4;190,9;0;12,9;42
731,12;1,7;21,039885;105,489867;1,648;0;0,015;0,13;-0,04;-0,047;-1,005;0,027;-0,003;0;0;11,7;0,6;190,9;0;12,3;42
731,369;1,67;21,039884;105,489867;1,647;0,001;0,016;0,064;-0,06;0,029;-1,001;0,012;-0,004;0;0;11,7;0,9;190,9;0;12,3;42
731,619;1,66;21,039883;105,489866;1,647;0,001;0,015;0,03;0,015;-0,034;-1,005;0,013;0,002;0;0;11,7;0,9;190,9;0;12,3;42
731,868;1,68;21,039883;105,489867;1,648;0,001;0,014;0,251;-0,095;0,043;-1,006;0,013;0,001;0;0;11,7;0,5;190,9;0;12,3;42
732,118;1,68;21,039882;105,489866;1,647;0,001;0,015;0,056;-0,066;-0,128;-1;0,017;-0,005;0;0;11,7;0,1;190,9;0;12,3;42
732,368;1,69;21,039882;105,489866;1,647;0,001;0,015;0,188;-0,057;0,067;-1;0,017;-0,004;0;0;11,7;0;190,9;0;12,3;42
732,617;1,69;21,039881;105,489866;1,648;0;0,014;0,075;-0,07;-0,158;-1,014;0,016;0;0;0;11,7;0;190,9;0;12,3;42
732,867;1,66;21,039881;105,489865;1,649;0,002;0,016;0,253;-0,095;0,108;-1,003;0,014;-0,009;0;0;11,7;0;190,9;0;12,3;42
733,116;1,63;21,03988;105,489866;1,648;-0,001;0,016;0,025;0,011;-0,166;-0,99;0,024;0;0;0;11,4;0;190,9;0;11,9;42
733,366;1,65;21,03988;105,489865;1,649;0,002;0,015;0,245;-0,016;0,152;-0,996;0,013;-0,001;0;0;11,7;0;190,9;0;12,3;42
733,616;1,68;21,039879;105,489865;1,648;0;0,015;0,037;0,044;-0,126;-1,002;0,018;-0,002;0;0;11,7;0,1;190,9;0;12,3;42
733,865;1,65;21,039878;105,489865;1,649;0,002;0,014;0,266;-0,091;0,09;-1,005;0,015;-0,005;0;0;11,7;0,1;190,9;0;12,3;42
734,115;1,62;21,039878;105,489865;1,649;0;0,015;0,033;0,012;-0,132;-1,003;0,016;0;0;0;11,7;0;190,9;0;12,3;42
734,364;1,61;21,039878;105,489865;1,649;0,002;0,013;0,216;-0,125;0,059;-1,002;0,007;-0,005;0;0;10,8;0;190,9;0;11,4;42
734,614;1,65;21,039877;105,489865;1,652;0,001;0,013;0,338;0,025;0,029;-0,997;0,013;0,003;0;0;11,7;0;190,9;0;12,3;42
734,864;1,69;21,039877;105,489864;1,654;-0,004;0,016;0,121;-0,016;-0,013;-1,005;0,016;0,01;0;0;11,7;0;190,9;0;12,3;42
735,113;1,68;21,039876;105,489864;1,655;0;0,014;0,243;-0,024;0,062;-0,999;0,009;-0,005;0;0;11,7;0,1;190,9;0;12,3;42
735,363;1,7;21,039876;105,489864;1,656;-0,003;0,016;0,154;-0,04;-0,097;-1;0,02;0,006;0;0;12,3;0;190,9;0;12,9;42
735,612;1,71;21,039876;105,489864;1,655;0;0,015;0,14;-0,062;-0,005;-1,001;0,02;-0,001;0;0;11,7;0;190,9;0;12,3;42
735,862;1,73;21,039875;105,489864;1,654;-0,001;0,016;0,147;-0,032;-0,015;-1,003;0,019;0;0;0;11,7;0;190,9;0;12,3;42
736,112;1,7;21,039875;105,489864;1,655;-0,001;0,016;0,126;-0,055;0,02;-1,002;0,017;0;0;0;11,7;0;190,9;0;12,3;42
736,361;1,66;21,039875;105,489863;1,654;-0,001;0,016;0,072;0,007;-0,022;-1,003;0,016;0;0;0;11,4;0;190,9;0;11,9;42
736,611;1,67;21,039874;105,489863;1,654;-0,001;0,015;0,158;-0,133;-0,057;-1,003;0,014;0;0;0;11,7;0,1;190,9;0;12,3;42
736,86;1,68;21,039874;105,489862;1,654;-0,002;0,015;0,145;-0,078;-0,044;-1,002;0,017;0,003;0;0;11,4;0;190,9;0;11,9;42
737,11;1,69;21,039873;105,489862;1,655;-0,002;0,015;0,154;-0,103;-0,067;-1,002;0,017;-0,001;0;0;12,3;1;190,9;0;12,9;42
737,36;1,7;21,039872;105,489861;1,656;-0,002;0,015;0,176;-0,013;-0,058;-1,001;0,017;0,001;0;0;12,3;0,5;190,9;0;12,9;42
737,609;1,7;21,039872;105,489862;1,656;-0,003;0,015;0,155;-0,04;-0,062;-1,006;0,021;0,004;0;0;11,7;0,2;190,9;0;12,3;42
737,859;1,74;21,039872;105,489862;1,656;-0,002;0,015;0,128;-0,096;0,01;-1,003;0,015;0;0;0;11,7;0;190,9;0;12,3;42
738,108;1,75;21,039871;105,489862;1,655;0;0,015;0,114;0;-0,088;-1,003;0,018;0,006;0;0;11,7;0;190,9;0;12,3;42
738,358;1,74;21,039871;105,489862;1,655;0;0,015;0,17;-0,043;0,027;-1;0,015;-0,004;0;0;11,7;0;190,9;0;12,3;42
738,608;1,72;21,039871;105,489862;1,655;-0,001;0,015;0,137;-0,061;-0,13;-1,006;0,017;-0,001;0;0;12,3;0;190,9;0;12,9;42
738,857;1,74;21,039871;105,489862;1,655;-0,001;0,015;0,165;-0,06;-0,011;-1,007;0,012;0,003;0;0;11,7;0,2;190,9;0;12,3;42
739,107;1,74;21,039871;105,489862;1,655;-0,001;0,014;0,139;-0,032;-0,028;-1,004;0,013;0;0;0;11,7;0;190,9;0;12,3;42
739,356;1,7;21,03987;105,489861;1,655;-0,002;0,015;0,114;-0,073;0;-1,002;0,016;-0,002;0;0;11,7;0;190,9;0;12,3;42
739,606;1,68;21,03987;105,489861;1,654;-0,001;0,014;0,155;-0,053;-0,024;-1,003;0,014;-0,001;0;0;11,7;0,2;190,9;0;12,3;42
739,856;1,68;21,039869;105,489861;1,654;-0,002;0,014;0,127;-0,031;-0,115;-1,007;0,017;0,001;0;0;11,4;0,1;190,9;0;11,9;42
740,105;1,68;21,039869;105,489861;1,654;-0,001;0,014;0,2;0,081;0,09;-1,005;0,014;0;0;0;12,3;0,1;190,9;0;12,9;42
740,355;1,69;21,039869;105,489861;1,654;-0,001;0,013;0,098;-0,061;-0,104;-1,006;0,011;-0,002;0;0;11,7;0,1;190,9;0;12,3;42
740,604;1,7;21,039868;105,489861;1,655;-0,002;0,014;0,221;-0,112;-0,007;-1,002;0,02;0,003;0;0;11,7;0,1;190,9;0;12,3;42
740,854;1,72;21,039869;105,489861;1,654;-0,001;0,013;0,08;-0,03;-0,054;-1,002;0,011;-0,001;0;0;11,7;0,1;190,9;0;12,3;42
741,104;1,7;21,039868;105,489861;1,655;-0,002;0,014;0,123;-0,06;-0,027;-1,005;0,014;0,005;0;0;11,7;0,1;190,9;0;12,3;42
741,353;1,69;21,039868;105,48986;1,655;-0,001;0,013;0,111;-0,023;0,052;-1,004;0,012;-0,005;0;0;11,7;0;190,9;0;12,3;42
741,603;1,69;21,039867;105,48986;1,655;-0,001;0,014;0,187;-0,046;-0,096;-1,005;0,014;0,001;0;0;12,3;0,1;190,9;0;12,9;42
741,852;1,68;21,039867;105,48986;1,656;-0,001;0,014;0,218;-0,039;-0,045;-1,005;0,018;0;0;0;12,3;0,1;190,9;0;12,9;42
742,102;1,71;21,039867;105,48986;1,656;-0,001;0,014;0,097;-0,062;-0,074;-1,002;0,017;-0,001;0;0;11,7;0;190,9;0;12,3;42
742,352;1,68;21,039867;105,48986;1,655;-0,001;0,015;0,129;-0,046;0,029;-1,003;0,017;0;0;0;11,7;0;190,9;0;12,3;42
742,601;1,69;21,039867;105,48986;1,656;-0,002;0,014;0,311;-0,049;0,048;-1,005;0,012;0,008;0;0;11,7;0;190,9;0;12,3;42
742,851;1,71;21,039867;105,48986;1,655;0;0,017;-0,011;-0,026;-0,221;-0,999;0,023;0;0;0;12,3;0;190,9;0;12,9;42
743,1;1,7;21,039866;105,489859;1,656;-0,001;0,015;0,301;-0,135;0,337;-0,997;0,011;0;0;0;12,3;0,2;190,9;0;12,9;42
743,35;1,74;21,039866;105,489859;1,657;-0,002;0,017;0,047;-0,077;-0,379;-1,005;0,015;0,008;0;0;12,3;0,1;190,9;0;12,9;42
743,6;1,73;21,039866;105,489859;1,659;0;0,017;0,25;-0,018;0,182;-1,003;0,018;-0,006;0;0;12,3;0;190,9;0;12,9;42
743,849;1,76;21,039866;105,489859;1,658;-0,002;0,014;0,15;-0,008;-0,132;-1,006;0,008;0,001;0;0;11,7;0;190,9;0;12,3;42
744,099;1,75;21,039866;105,489858;1,658;-0,002;0,016;0,084;0,036;-0,17;-1,003;0,023;0,005;0;0;12,3;0;190,9;0;12,9;42
744,348;1,76;21,039866;105,489858;1,657;-0,001;0,014;0,088;-0,121;0,027;-1;0,023;-0,005;0;0;11,4;0;190,9;0;11,9;42
744,598;1,74;21,039865;105,489858;1,662;-0,003;0,014;0,351;-0,033;0,182;-0,992;0,02;0,007;0;0;12,3;0;190,9;0;12,9;42
744,848;1,72;21,039865;105,489857;1,661;-0,002;0,017;-0,016;0,07;-0,094;-1,005;0,026;0;0;0;11,7;0;190,9;0;12,3;42
745,097;1,75;21,039865;105,489857;1,662;0,001;0,019;0,288;0,002;0,131;-1,014;0,007;-0,004;0;0;11,7;0;190,9;0;12,3;42
745,347;1,72;21,039865;105,489857;1,662;-0,005;0,016;-0,01;0,027;-0,117;-1,01;0,002;0,008;0;0;11,4;0;190,9;0;11,9;42
745,596;1,71;21,039866;105,489857;1,665;-0,006;0,009;0,136;0,019;0,045;-1,006;-0,011;0,016;0;0;11,7;0;190,9;0;12,3;42
745,846;1,75;21,039865;105,489857;1,664;0;0,008;0,144;-0,033;-0,22;-1,005;0,003;-0,012;0;0;12,3;0,1;190,9;0;12,9;42
746,096;1,76;21,039865;105,489856;1,663;-0,001;0,014;0,11;0;-0,024;-1,003;0,02;0;0;0;12,3;0;190,9;0;12,9;42
746,345;1,75;21,039865;105,489856;1,663;0;0,014;0,452;-0,058;0,356;-0,998;0,028;0;0;0;12,3;0;190,9;0;12,9;42
746,595;1,77;21,039865;105,489856;1,662;0;0,017;-0,21;-0,087;-0,804;-1,007;0,025;0,013;0;0;12,3;0;190,9;0;12,9;42
746,844;1,77;21,039865;105,489856;1,664;-0,002;0,016;0,209;-0,029;0,542;-0,998;-0,009;-0,009;0;0;11,7;0,1;190,9;0;12,3;42
747,094;1,73;21,039865;105,489855;1,661;-0,005;0,014;-0,033;0,106;-0,205;-1,001;0,01;0,023;0;0;11,7;0,1;190,9;0;12,3;42
747,344;1,73;21,039865;105,489855;1,651;0,001;0,017;-0,174;0,131;-0,278;-0,998;0,029;-0,02;0;0;11,7;0,1;190,9;0;12,3;42
747,593;1,73;21,039865;105,489855;1,653;0,002;0,013;0,399;-0,186;0,463;-1,007;0,006;0,007;0;0;11,7;0;190,9;0;12,3;42
747,843;1,75;21,039865;105,489855;1,653;0;0,015;-0,164;-0,017;-0,319;-1,005;0,013;-0,003;0;0;11,7;0,1;190,9;0;12,3;42
748,092;1,76;21,039865;105,489855;1,65;0,002;0,013;0,32;-0,053;0,182;-1,001;0,008;-0,009;0;0;11,7;0;190,9;0;12,3;42
748,342;1,75;21,039865;105,489855;1,652;0;0,015;0,072;-0,012;-0,001;-1,002;0,012;0,009;0;0;11,7;0,1;190,9;0;12,3;42
748,592;1,77;21,039864;105,489854;1,652;0,002;0,015;0,158;-0,024;-0,079;-1,001;0,015;-0,01;0;0;12,3;0,3;190,9;0;12,9;42
748,841;1,74;21,039864;105,489855;1,655;0,001;0,017;0,272;-0,049;0,083;-1;0,018;-0,005;0;0;11,7;0,2;190,9;0;12,3;42
749,091;1,75;21,039864;105,489853;1,652;0;0,015;-0,019;0,064;-0,207;-1,005;0,009;0;0;0;11,7;0,3;190,9;0;12,3;42
749,34;1,73;21,039863;105,489852;1,653;0,002;0,015;0,312;-0,08;0,013;-1,004;0,018;-0,005;0;0;11,7;0,3;190,9;0;12,3;42
749,59;1,73;21,039863;105,489852;1,653;0;0,014;0,073;-0,007;-0,055;-1,002;0,012;-0,003;0;0;11,7;0,4;190,9;0;12,3;42
749,84;1,72;21,039862;105,48985;1,653;0,001;0,015;0,162;-0,146;-0,062;-1,001;0,016;0,003;0;0;12,3;0,6;190,9;0;12,9;42
750,089;1,71;21,039861;105,489847;1,653;0,001;0,014;0,07;-0,055;-0,068;-1,004;0,019;-0,004;0;0;11,7;0,8;190,9;0;12,3;42
750,339;1,71;21,039861;105,489846;1,653;0,001;0,013;0,102;-0,03;-0,058;-1;0,01;-0,001;0;0;11,7;0,9;190,9;0;12,3;42
750,588;1,72;21,03986;105,489846;1,654;0,001;0,015;0,14;-0,036;0,056;-1,001;0,017;-0,001;0;0;11,7;0,7;190,9;0;12,3;42
750,838;1,71;21,03986;105,489845;1,654;0;0,016;0,041;0,012;-0,132;-0,991;0,033;0,014;0;0;11,7;0,7;190,9;0;12,3;42
751,088;1,73;21,039859;105,489844;1,653;0,002;0,012;0,268;-0,015;0,054;-1,006;0,002;-0,006;0;0;12,3;0,7;190,9;0;12,9;42
751,337;1,73;21,039859;105,489844;1,654;-0,001;0,016;-0,02;-0,162;-0,035;-1,024;0,007;-0,007;0;0;11,7;0,5;190,9;0;12,3;42
751,587;1,74;21,039858;105,489843;1,655;-0,004;0,023;0,204;-0,033;-0,221;-1,024;0,014;0,011;0;0;11,7;0,6;190,9;0;12,3;42
751,836;1,74;21,039857;105,489842;1,653;-0,004;0,019;0,178;-0,135;0,255;-1,012;0,004;0,001;0;0;12,3;0,5;190,9;0;12,9;42
752,086;1,75;21,039858;105,489847;1,654;-0,005;0,016;0,115;0,18;-0,363;-1,029;0,001;0,021;0;0;11,7;0,1;190,9;0;12,3;42
752,336;1,75;21,039858;105,48985;1,657;0,002;0,016;0,224;-0,101;0,297;-1,004;0,011;-0,006;0;0;12,3;0;190,9;0;12,9;42
752,585;1,76;21,039859;105,489853;1,648;-0,004;0,011;-0,207;0,01;-0,166;-1,033;-0,013;0,003;0;0;11,7;0;190,9;0;12,3;42
752,835;1,76;21,039862;105,489861;1,655;0;0,019;0,522;-0,129;0;-1,009;0,03;0,007;0;0;11,7;0,1;190,9;0;12,3;42
753,084;1,74;21,039862;105,489861;1,655;-0,005;0,017;-0,328;0,031;-0,223;-1,013;0,005;0;0;0;11,7;0;190,9;0;12,3;42
753,334;1,75;21,03986;105,489859;1,649;0,004;0,013;0,142;-0,007;-0,149;-1,003;0,008;-0,024;0;0;11,7;0;190,9;0;12,3;42
753,584;1,75;21,039861;105,489861;1,645;-0,003;0,005;-0,017;0,1;0,022;-1,01;-0,025;0,018;0;0;12,3;0;190,9;0;12,9;42
753,833;1,74;21,03986;105,48986;1,652;0,004;0,014;0,268;-0,158;-0,142;-1,006;0,031;-0,006;0;0;12,3;0,1;190,9;0;12,9;42
754,083;1,77;21,039858;105,489857;1,648;-0,004;0,008;0,158;0,034;0,275;-0,984;-0,008;0,015;0;0;12,3;0,2;190,9;0;12,9;42
754,332;1,78;21,039859;105,489858;1,654;0,009;0,016;0,006;-0,129;-0,474;-1,001;0,014;-0,017;0;0;11,7;0,1;190,9;0;12,3;42
754,582;1,77;21,039858;105,489856;1,648;-0,004;0,011;0,066;0,054;0,183;-1,003;-0,007;0,007;0;0;11,4;0;190,9;0;12;42
754,832;1,77;21,039858;105,489855;1,656;0,005;0,013;0,657;-0,207;0,001;-0,998;0,028;-0,001;0;0;11,7;0;190,9;0;12,3;42
755,081;1,8;21,039858;105,489856;1,659;-0,006;0,016;-0,005;0,03;0,048;-1,004;0,021;0,004;0;0;11,7;0,9;190,9;0;12,3;42
755,331;1,79;21,039858;105,489855;1,658;0,001;0,015;0,177;-0,111;0,094;-1;0,015;-0,017;0;0;12,3;0,2;190,9;0;12,9;42
755,58;1,79;21,039858;105,489855;1,657;0,005;0,018;-0,006;0,028;-0,388;-0,996;0,028;-0,034;0;0;12,3;0,1;190,9;0;12,9;42
755,83;1,8;21,039856;105,489853;1,658;-0,003;0,015;0,46;0,038;0,357;-1,024;0,036;0,014;0;0;11,7;0,1;190,9;0;12,3;42
756,08;1,77;21,039855;105,489852;1,66;0;0,019;0,005;-0,103;-0,367;-1,004;0,036;0;0;0;11,4;0;190,9;0;12;42
756,329;1,8;21,039856;105,489853;1,658;-0,003;0,016;0,143;0,024;0,143;-0,994;0,02;-0,01;0;0;12,3;0;190,9;0;12,9;42
756,579;1,8;21,039855;105,489853;1,654;0,001;0,018;0,036;0,011;-0,069;-1,008;0,029;0,011;0;0;12,8;0,1;190,9;0;13,4;42
756,828;1,81;21,039855;105,489853;1,656;0;0,018;0,268;-0,032;0,261;-1,005;0,023;-0,014;0;0;12,3;0;190,9;0;12,9;42
757,078;1,79;21,039855;105,489852;1,652;0,001;0,014;0,025;0,031;-0,227;-1,005;0,015;0,009;0;0;12,3;0;190,9;0;12,9;42
757,328;1,83;21,039856;105,489852;1,654;0,001;0,018;0,226;-0,07;0,029;-1,003;0,027;-0,008;0;0;11,7;0,1;190,9;0;12,3;42
757,577;1,81;21,039856;105,489853;1,652;-0,001;0,015;0,035;0,029;0,072;-1,002;0,014;0,004;0;0;12,3;0;190,9;0;12,9;42
757,827;1,79;21,039855;105,489852;1,653;0,001;0,017;0,134;-0,072;-0,175;-1;0,026;0,003;0;0;12,3;0,1;190,9;0;12,9;42
758,076;1,8;21,039855;105,489853;1,651;0;0,015;0,118;-0,015;0,087;-1,007;0,012;-0,008;0;0;11,7;0;190,9;0;12,3;42
758,326;1,8;21,039855;105,489853;1,652;0;0,015;0,091;-0,036;-0,04;-1,004;0,013;0,007;0;0;11,7;0;190,9;0;12,3;42
758,576;1,83;21,039855;105,489853;1,652;0,002;0,016;0,152;-0,039;0,103;-1,003;0,015;-0,013;0;0;11,7;0,1;190,9;0;12,3;42
758,825;1,84;21,039855;105,489852;1,653;0;0,015;0,156;-0,057;-0,078;-0,999;0,016;0;0;0;11,7;0;190,9;0;12,3;42
759,075;1,83;21,039855;105,489852;1,652;0,002;0,015;0,178;-0,072;-0,019;-1,002;0,017;-0,003;0;0;12,3;0,1;190,9;0;12,9;42
759,324;1,8;21,039855;105,489851;1,652;0;0,016;0,087;-0,082;0,038;-1,002;0,018;-0,002;0;0;11,7;0;190,9;0;12,3;42
759,574;1,8;21,039854;105,489851;1,652;0,001;0,015;0,199;-0,01;0,016;-1,003;0,015;-0,002;0;0;11,7;0;190,9;0;12,3;42
759,824;1,78;21,039855;105,489851;1,653;0,001;0,016;0,125;0,032;-0,129;-1,003;0,017;-0,001;0;0;11,7;0;190,9;0;12,3;42
760,073;1,79;21,039855;105,489851;1,653;0,001;0,015;0,138;-0,049;-0,039;-1,003;0,017;-0,005;0;0;11,7;0;190,9;0;12,3;42
760,323;1,79;21,039855;105,489851;1,653;0,001;0,015;0,129;-0,042;-0,032;-1,002;0,017;-0,001;0;0;12,3;0;190,9;0;12,9;42
760,572;1,79;21,039855;105,489851;1,652;0,001;0,015;0,15;-0,076;-0,059;-1,002;0,017;-0,002;0;0;11,7;0;190,9;0;12,3;42
760,822;1,78;21,039855;105,489851;1,652;0;0,016;0,136;0,001;-0,037;-1,002;0,017;-0,002;0;0;11,7;0;190,9;0;12,3;42
761,072;1,8;21,039855;105,489852;1,652;0,001;0,015;0,124;-0,051;0,01;-1,003;0,016;-0,001;0;0;11,7;0;190,9;0;12,3;42
761,321;1,81;21,039856;105,489852;1,652;0,001;0,015;0,151;-0,007;-0,059;-1,003;0,017;-0,001;0;0;11,7;0,1;190,9;0;12,3;42
761,571;1,78;21,039856;105,489852;1,652;0,001;0,016;0,061;0,005;-0,02;-1,003;0,017;-0,002;0;0;11,7;0;190,9;0;12,3;42
761,82;1,8;21,039856;105,489852;1,651;0,001;0,015;0,051;0,01;-0,03;-1,003;0,016;-0,002;0;0;11,7;0;190,9;0;12,3;42
762,07;1,81;21,039855;105,489852;1,652;0,001;0,015;0,166;-0,035;-0,059;-1,003;0,017;-0,002;0;0;11,7;0;190,9;0;12,3;42
762,32;1,79;21,039855;105,489852;1,652;0;0,015;0,146;-0,06;0,001;-1,003;0,017;-0,002;0;0;12,3;0;190,9;0;12,9;42
762,569;1,79;21,039855;105,489852;1,652;0,001;0,015;0,124;-0,054;-0,029;-1,003;0,017;-0,001;0;0;12,3;0;190,9;0;12,9;42
762,819;1,79;21,039855;105,489852;1,653;0,001;0,016;0,162;0;-0,002;-1,004;0,017;-0,002;0;0;12,3;0;190,9;0;12,9;42
763,068;1,81;21,039855;105,489852;1,653;0,001;0,015;0,189;-0,051;-0,055;-1,003;0,017;-0,002;0;0;12,3;0;190,9;0;12,9;42
763,318;1,79;21,039855;105,489853;1,652;0,001;0,016;0,186;-0,058;-0,024;-1,003;0,017;-0,003;0;0;11,7;0;190,9;0;12,3;42
763,568;1,8;21,039855;105,489853;1,653;0,001;0,016;0,138;0,032;-0,059;-1,003;0,017;-0,002;0;0;12,3;0;190,9;0;12,9;42
763,817;1,79;21,039855;105,489853;1,653;0,001;0,015;0,149;0;-0,05;-1,003;0,016;-0,002;0;0;11,7;0;190,9;0;12,3;42
764,067;1,78;21,039855;105,489854;1,653;0,001;0,015;0,165;-0,018;-0,042;-1,003;0,017;-0,001;0;0;11,7;0;190,9;0;12,3;42
764,316;1,79;21,039855;105,489855;1,653;0;0,015;0,137;-0,041;-0,071;-1,003;0,017;-0,002;0;0;11,7;0;190,9;0;12,3;42
764,566;1,77;21,039855;105,489855;1,653;0;0,016;0,123;-0,059;-0,018;-1,003;0,017;-0,002;0;0;12,3;0,1;190,9;0;12,9;42
764,816;1,78;21,039856;105,489855;1,652;0;0,016;0,107;-0,026;0,048;-1,003;0,017;-0,002;0;0;11,7;0;190,9;0;12,3;42
765,065;1,77;21,039856;105,489856;1,652;0;0,016;0,066;-0,022;-0,073;-1,003;0,017;-0,002;0;0;11,7;0;190,9;0;12,3;42
765,315;1,79;21,039856;105,489856;1,652;0;0,016;0,092;-0,014;-0,01;-1,003;0,017;-0,002;0;0;12,3;0,1;190,9;0;12,9;42
765,564;1,8;21,039856;105,489856;1,652;0,001;0,015;0,164;-0,016;-0,061;-1,002;0,017;-0,002;0;0;12,3;0;190,9;0;12,9;42
765,814;1,81;21,039856;105,489856;1,652;0,001;0,016;0,085;-0,034;-0,043;-1,002;0,017;-0,002;0;0;11,7;0,1;190,9;0;12,3;42
766,064;1,81;21,039856;105,489857;1,652;0,001;0,015;0,142;-0,07;-0,071;-1,003;0,017;-0,002;0;0;11,7;0;190,9;0;12,3;42
766,313;1,83;21,039856;105,489857;1,653;0,001;0,016;0,132;-0,036;-0,014;-1,002;0,017;-0,002;0;0;12,3;0;190,9;0;12,9;42
766,563;1,83;21,039856;105,489857;1,652;0,001;0,016;0,096;-0,049;0,019;-1,003;0,017;-0,002;0;0;11,7;0;190,9;0;12,3;42
766,812;1,79;21,039856;105,489857;1,653;0,001;0,016;0,158;-0,059;-0,018;-1,003;0,017;-0,002;0;0;12,3;0;190,9;0;12,9;42
767,062;1,78;21,039857;105,489858;1,653;0;0,015;0,201;-0,042;-0,057;-1,003;0,017;-0,002;0;0;12,8;0,2;190,9;0;13,4;42
767,312;1,8;21,039857;105,489858;1,653;0;0,016;0,199;-0,016;-0,027;-1,003;0,017;-0,002;0;0;12,3;0;190,9;0;12,9;42
767,561;1,83;21,039857;105,489858;1,653;0;0,016;0,151;-0,055;-0,067;-1,003;0,017;-0,002;0;0;12,3;0,1;190,9;0;12,9;42
767,811;1,84;21,039857;105,489858;1,653;0;0,015;0,135;-0,012;-0,002;-1,003;0,017;-0,002;0;0;11,7;0;190,9;0;12,3;42
768,06;1,86;21,039857;105,489858;1,652;0;0,015;0,094;-0,019;-0,038;-1,003;0,017;-0,002;0;0;11,4;0,2;190,9;0;12;42
768,31;1,83;21,039857;105,489858;1,652;0;0,015;0,121;-0,067;-0,092;-1,003;0,017;-0,001;0;0;12,8;0,1;190,9;0;13,4;42
768,56;1,83;21,039857;105,489858;1,653;0;0,015;0,165;-0,055;0,011;-1,003;0,017;-0,002;0;0;12,3;0;190,9;0;12,9;42
768,809;1,83;21,039857;105,489858;1,653;0;0,015;0,119;-0,07;-0,029;-1,003;0,017;-0,002;0;0;12,3;0;190,9;0;12,9;42
769,059;1,83;21,039857;105,489858;1,653;0;0,015;0,261;-0,045;-0,031;-1,003;0,017;-0,002;0;0;12,3;0;190,9;0;12,9;42
769,308;1,86;21,039857;105,489858;1,654;0,001;0,016;0,136;-0,004;0,033;-1,003;0,017;-0,002;0;0;11,7;0,1;190,9;0;12,3;42
769,558;1,87;21,039857;105,489858;1,654;0;0,015;0,17;-0,04;-0,049;-1,002;0,017;-0,002;0;0;12,3;0,1;190,9;0;12,9;42
769,808;1,87;21,039857;105,489858;1,654;0;0,015;0,164;-0,043;-0,041;-1,003;0,017;-0,002;0;0;11,7;0,1;190,9;0;12,3;42
770,057;1,89;21,039858;105,489858;1,653;0;0,015;0,101;-0,05;-0,077;-1,003;0,017;-0,002;0;0;12,3;0;190,9;0;12,9;42
770,307;1,88;21,039858;105,489858;1,653;0;0,016;0,185;-0,097;-0,044;-1,003;0,017;-0,002;0;0;12,3;0;190,9;0;12,9;42
770,556;1,87;21,039858;105,489858;1,653;0;0,016;0,155;0,005;0,007;-1,003;0,017;-0,001;0;0;11,7;0,1;190,9;0;12,3;42
770,806;1,85;21,039857;105,489857;1,653;0,001;0,016;0,062;0,004;0,045;-1,003;0,017;-0,002;0;0;12,8;0;190,9;0;13,4;42
771,056;1,83;21,039857;105,489857;1,653;0,001;0,016;0,147;-0,062;-0,001;-1,003;0,017;-0,002;0;0;12,3;0,2;190,9;0;12,9;42
771,305;1,82;21,039857;105,489856;1,652;0;0,016;0,101;0,019;0,033;-1,003;0,016;-0,002;0;0;11,7;0,1;190,9;0;12,3;42
771,555;1,82;21,039857;105,489857;1,652;0,001;0,016;0,142;-0,028;-0,053;-1,003;0,016;-0,002;0;0;11,7;0,1;190,9;0;12,3;42
771,804;1,82;21,039857;105,489857;1,652;0,001;0,016;0,136;0,064;-0,061;-1,003;0,017;-0,002;0;0;12,3;0,1;190,9;0;12,9;42
772,054;1,83;21,039857;105,489857;1,652;0;0,016;0,168;-0,004;-0,055;-1,002;0,017;-0,002;0;0;11,4;0;190,9;0;12;42
772,304;1,78;21,039858;105,489857;1,653;0,001;0,015;0,158;0,034;-0,029;-1,003;0,017;-0,002;0;0;12,3;0;190,9;0;12,9;42
772,553;1,79;21,039858;105,489856;1,653;0;0,015;0,17;-0,067;-0,049;-1,003;0,017;-0,002;0;0;12,3;0,1;190,9;0;12,9;42
772,803;1,81;21,039858;105,489856;1,652;0;0,015;0,117;-0,071;-0,03;-1,003;0,017;-0,002;0;0;11,7;0,1;190,9;0;12,3;42
773,052;1,82;21,039858;105,489856;1,653;0;0,016;0,235;-0,025;0,022;-1,003;0,017;-0,001;0;0;11,7;0,4;190,9;0;12,3;42
773,302;1,81;21,039859;105,489855;1,653;0;0,015;0,191;-0,046;0,028;-1,003;0,014;-0,002;0;0;11,7;0;190,9;0;12,3;42
773,552;1,82;21,039859;105,489855;1,654;0;0,016;0,176;-0,103;0,045;-1,002;0,014;-0,003;0;0;12,3;0;190,9;0;12,9;42
773,801;1,84;21,039859;105,489855;1,656;-0,001;0,017;0,303;-0,097;0,083;-1,001;0,018;0,006;0;0;11,7;0;190,9;0;12,3;42
774,051;1,82;21,03986;105,489855;1,657;-0,002;0,017;0,017;-0,072;-0,092;-0,998;0,018;0;0;0;11,7;0;190,9;0;12,3;42
774,3;1,85;21,03986;105,489855;1,656;-0,004;0,017;0,015;-0,045;-0,036;-1,003;0,015;0,002;0;0;11,4;0;190,9;0;12;42
774,55;1,83;21,03986;105,489854;1,653;0;0,016;0,059;0,01;0,043;-0,989;0,013;-0,01;0;0;11,4;0;190,9;0;12;42
774,8;1,85;21,03986;105,489854;1,656;0;0,015;0,517;-0,04;-0,008;-1,009;0,017;-0,003;0;0;11,7;0,1;190,9;0;12,3;42
775,049;1,86;21,03986;105,489854;1,657;0,001;0,018;0,024;-0,007;-0,124;-1,008;0,019;-0,004;0;0;11,7;0;190,9;0;12,3;42
775,299;1,88;21,03986;105,489854;1,657;-0,002;0,016;0,129;-0,023;0,192;-1,004;0,025;-0,004;0;0;11,7;0,2;190,9;0;12,3;42
775,548;1,88;21,039861;105,489854;1,657;-0,001;0,015;0,133;-0,097;-0,196;-1,002;0,01;0,006;0;0;12,3;0,2;190,9;0;12,9;42
775,798;1,84;21,039861;105,489853;1,66;-0,001;0,019;0,288;-0,125;0,083;-1,003;0,022;-0,001;0;0;12,3;0,2;190,9;0;12,9;42
776,048;1,85;21,039861;105,489853;1,658;-0,004;0,015;-0,305;0,042;-0,161;-0,976;0,011;0;0;0;11,7;0,2;190,9;0;12,3;42
776,297;1,89;21,039861;105,489852;1,651;0;0,014;-0,055;-0,02;-0,008;-0,999;0,014;-0,003;0;0;11,7;0,2;190,9;0;12,3;42
776,547;1,92;21,039861;105,489852;1,661;-0,002;0,009;0,374;-0,05;0,004;-1,015;0,004;-0,013;0;0;11,7;0,2;190,9;0;12,3;42
776,796;1,94;21,03986;105,489851;1,65;0,003;0,016;-0,164;0,192;-0,256;-0,964;0,064;-0,011;0;0;12,3;0,3;190,9;0;12,9;42
777,046;1,91;21,03986;105,489851;1,659;-0,001;0,025;0,672;0,114;0,378;-1,065;0,114;0;0;0;11,7;0,1;190,9;0;12,3;42
777,296;1,89;21,039859;105,48985;1,655;0,004;0,026;-0,041;-0,029;0,114;-1,022;0,032;-0,001;0;0;12,3;0,2;190,9;0;12,9;42
777,545;1,89;21,039859;105,48985;1,654;-0,003;0,017;0,213;-0,114;-0,192;-0,96;0,012;0;0;0;12,3;0;190,9;0;12,9;42
777,795;1,86;21,03986;105,48985;1,665;0,001;0,022;0,455;-0,318;0,253;-1,037;0,013;0;0;0;12,3;0;190,9;0;12,9;42
778,044;1,86;21,039859;105,48985;1,656;-0,005;0,017;-0,332;0,116;-0,413;-1,013;0,02;0,009;0;0;12,3;0,3;190,9;0;12,9;42
778,294;1,85;21,039859;105,48985;1,65;0,004;0,017;0,134;0,033;-0,12;-1,013;0,032;-0,012;0;0;11,7;0;190,9;0;12,3;42
778,544;1,85;21,039859;105,489849;1,651;0,002;0,02;-0,075;-0,088;0,284;-1,015;0,016;0,001;0;0;11,7;0,2;190,9;0;12,3;42
778,793;1,84;21,039859;105,489848;1,652;0;0,016;0,249;-0,054;-0,151;-1,007;0,003;0;0;0;11,7;0;190,9;0;12,3;42
779,043;1,86;21,039859;105,489848;1,652;0;0,018;0,14;-0,048;-0,114;-1,006;0,014;-0,009;0;0;12,3;0;190,9;0;12,9;42
779,292;1,86;21,039859;105,489848;1,652;0;0,014;0,281;-0,039;0,128;-1,017;0,042;0,005;0;0;11,7;0,2;190,9;0;12,3;42
779,542;1,88;21,039859;105,489848;1,653;0;0,016;0,111;0,037;-0,135;-0,999;0,028;-0,008;0;0;12,3;0;190,9;0;12,9;42
779,792;1,88;21,039859;105,489848;1,654;0,002;0,017;0,289;-0,035;0,012;-0,997;0,02;0,001;0;0;11,7;0;190,9;0;12,3;42
780,041;1,86;21,039858;105,489848;1,653;0;0,016;-0,029;0,023;-0,112;-1,005;0,018;-0,002;0;0;11,7;0,2;190,9;0;12,3;42
780,291;1,85;21,039858;105,489847;1,653;0,001;0,017;0,174;-0,091;0,036;-1,007;0,018;-0,001;0;0;11,7;0,1;190,9;0;12,3;42
780,54;1,84;21,039857;105,489847;1,654;0;0,016;0,087;-0,012;-0,07;-1,004;0,015;-0,006;0;0;12,3;0;190,9;0;12,9;42
780,79;1,83;21,039857;105,489846;1,654;0,001;0,017;0,188;-0,083;0,065;-1,003;0,018;0;0;0;11,7;0,1;190,9;0;12,3;42
781,04;1,81;21,039857;105,489845;1,655;0;0,017;0,236;-0,057;0,008;-1,008;0,016;0,001;0;0;12,3;0,2;190,9;0;12,9;42
781,289;1,81;21,039857;105,489845;1,657;0,001;0,02;0,059;-0,047;-0,106;-1,003;0,025;-0,001;0;0;11,7;0,2;190,9;0;12,3;42
781,539;1,85;21,039857;105,489845;1,654;-0,001;0,016;-0,005;0,017;-0,012;-0,993;0;-0,003;0;0;12,3;0,3;190,9;0;12,9;42
781,788;1,87;21,039857;105,489845;1,656;0,002;0,019;0,134;-0,015;-0,11;-1,006;0,006;0;0;0;11,7;0,3;190,9;0;12,3;42
782,038;1,86;21,039857;105,489845;1,653;-0,001;0,014;-0,09;-0,064;-0,07;-1;0,003;0;0;0;11,4;0,2;190,9;0;12;42
782,288;1,86;21,039857;105,489845;1,653;0;0,016;0,154;-0,075;-0,033;-1,002;0,007;0,003;0;0;11,7;0,2;190,9;0;12,3;42
782,537;1,87;21,039857;105,489846;1,654;-0,002;0,012;0,154;0,063;-0,063;-1,006;-0,001;-0,006;0;0;11,7;0,2;190,9;0;12,3;42
782,787;1,85;21,039858;105,489846;1,654;0;0,013;0,214;0,017;-0,118;-0,999;0,022;0,005;0;0;11,7;0,1;190,9;0;12,3;42
783,036;1,85;21,039858;105,489846;1,654;0,001;0,014;-0,102;-0,118;-0,087;-1,027;-0,01;-0,019;0;0;12,3;0;190,9;0;12,9;42
783,286;1,89;21,039858;105,489847;1,657;-0,004;0,008;0,08;0,085;0,044;-1,001;-0,012;0,037;0;0;12,3;0;190,9;0;12,9;42
783,536;1,86;21,039858;105,489848;1,654;0,007;0,012;0,199;-0,135;-0,066;-1,008;0,003;-0,031;0;0;12,3;0,1;190,9;0;12,9;42
783,785;1,87;21,039858;105,489848;1,656;-0,002;0,012;0,54;-0,021;0,029;-0,992;-0,019;0,015;0;0;12,3;0;190,9;0;12,9;42
784,035;1,89;21,039858;105,489848;1,656;0,002;0,017;-0,232;-0,097;-0,262;-1,001;0,039;-0,007;0;0;11,7;0;190,9;0;12,3;42
784,284;1,89;21,039858;105,489847;1,653;0;0,011;0,281;-0,084;0,097;-1,007;0,007;-0,004;0;0;12,3;0;190,9;0;12,9;42
784,534;1,85;21,039858;105,489847;1,654;0,001;0,016;0,021;-0,073;-0,231;-1;0,031;0,002;0;0;12,3;0,1;190,9;0;12,9;42
784,784;1,84;21,039858;105,489847;1,651;0,001;0,015;0,19;0,03;0,11;-0,999;0,02;-0,013;0;0;12,3;0,1;190,9;0;12,9;42
785,033;1,86;21,039859;105,489846;1,651;0;0,016;0,137;-0,051;-0,042;-1,003;0,018;0,008;0;0;11,7;0;190,9;0;12,3;42
785,283;1,85;21,039859;105,489846;1,65;0,001;0,016;0,13;-0,052;-0,045;-1,004;0,019;-0,009;0;0;11,7;0;190,9;0;12,3;42
785,532;1,85;21,039858;105,489846;1,651;0;0,016;0,164;0,003;0,016;-1,004;0,017;0,002;0;0;11,7;0;190,9;0;12,3;42
785,782;1,86;21,039858;105,489845;1,651;0,001;0,015;0,123;-0,029;-0,026;-1,003;0,015;-0,002;0;0;11,7;0;190,9;0;12,3;42
786,032;1,86;21,039858;105,489845;1,652;0,001;0,016;0,122;-0,06;0,049;-1,004;0,017;-0,005;0;0;12,3;0,1;190,9;0;12,9;42
786,281;1,85;21,039859;105,489845;1,653;0,001;0,016;0,261;-0,075;0,016;-1,005;0,017;-0,005;0;0;11,7;0;190,9;0;12,3;42
786,531;1,83;21,039859;105,489845;1,654;0;0,017;0,17;0,012;-0,036;-1,003;0,021;0;0;0;12,3;0;190,9;0;12,9;42
786,78;1,86;21,039859;105,489844;1,654;0,001;0,016;0,161;-0,052;0,024;-1,003;0,017;-0,002;0;0;11,7;0,1;190,9;0;12,3;42
787,03;1,88;21,039859;105,489844;1,654;0;0,016;0,112;-0,117;-0,03;-1,003;0,018;-0,001;0;0;12,3;0,1;190,9;0;12,9;42
787,28;1,89;21,039858;105,489844;1,654;0,001;0,015;0,24;-0,055;-0,063;-1,003;0,017;-0,005;0;0;11,7;0,2;190,9;0;12,3;42
787,529;1,87;21,039858;105,489844;1,654;0;0,016;0,135;0;-0,099;-1,002;0,018;-0,001;0;0;12,3;0,1;190,9;0;12,9;42
787,779;1,88;21,039858;105,489843;1,654;0,001;0,016;0,136;-0,023;0,04;-1,002;0,017;-0,004;0;0;12,3;0;190,9;0;12,9;42
788,028;1,89;21,039858;105,489843;1,654;0;0,016;0,08;-0,027;-0,047;-1,003;0,018;-0,001;0;0;11,7;0;190,9;0;12,3;42
788,278;1,88;21,039858;105,489843;1,653;0,001;0,016;0,136;0,006;-0,028;-1,002;0,017;-0,002;0;0;12,3;0;190,9;0;12,9;42
788,528;1,86;21,039858;105,489843;1,654;0,001;0,016;0,13;0,014;-0,067;-1,003;0,018;-0,001;0;0;12,3;0;190,9;0;12,9;42
788,777;1,89;21,039858;105,489843;1,653;0,001;0,016;0,098;-0,096;-0,025;-1,003;0,018;-0,003;0;0;12,3;0,1;190,9;0;12,9;42
789,027;1,9;21,039858;105,489843;1,653;0;0,017;0,1;-0,034;0,033;-1,003;0,018;-0,001;0;0;12,3;0,1;190,9;0;12,9;42
789,276;1,89;21,039857;105,489843;1,653;0;0,017;0,151;-0,055;0,002;-1,003;0,018;-0,002;0;0;12,3;0,1;190,9;0;12,9;42
789,526;1,89;21,039857;105,489842;1,653;0;0,016;0,142;-0,058;-0,036;-1,003;0,018;-0,001;0;0;11,7;0;190,9;0;12,3;42
789,776;1,9;21,039857;105,489842;1,653;0;0,016;0,217;-0,043;0,014;-1,002;0,018;-0,002;0;0;11,7;0;190,9;0;12,3;42
790,025;1,91;21,039857;105,489842;1,654;0;0,017;0,121;-0,086;-0,013;-1,002;0,018;-0,001;0;0;12,3;0,1;190,9;0;12,9;42
790,275;1,9;21,039857;105,489842;1,654;0;0,016;0,133;-0,001;-0,036;-1,003;0,018;-0,002;0;0;12,8;0,1;190,9;0;13,4;42
790,524;1,91;21,039857;105,489842;1,654;0;0,017;0,192;-0,01;-0,032;-1,003;0,018;-0,002;0;0;12,3;0,1;190,9;0;12,9;42
790,774;1,88;21,039857;105,489842;1,654;0;0,016;0,148;-0,032;-0,005;-1,003;0,018;-0,002;0;0;11,7;0;190,9;0;12,3;42
791,024;1,87;21,039857;105,489842;1,654;0;0,016;0,121;-0,073;-0,052;-1,003;0,018;-0,002;0;0;12,3;0;190,9;0;12,9;42
791,273;1,87;21,039857;105,489843;1,653;0;0,016;0,138;-0,054;-0,047;-1,003;0,018;-0,001;0;0;12,3;0;190,9;0;12,9;42
791,523;1,85;21,039857;105,489843;1,654;0,003;0,019;0,178;0,001;0,212;-1,017;0,03;-0,011;0;0;11,4;0,1;190,9;0;12;42
791,772;1,84;21,039857;105,489842;1,654;0,001;0,017;0,2;-0,002;0,041;-1,007;0,013;-0,001;0;0;12,3;0,3;190,9;0;12,9;42
792,022;1,85;21,039857;105,489842;1,654;0;0,017;0,147;-0,073;-0,013;-1;0,018;0;0;0;12,3;0;190,9;0;12,9;42
792,272;1,85;21,039857;105,489842;1,654;0,001;0,016;0,156;-0,055;-0,065;-0,999;0,018;-0,004;0;0;12,8;0;190,9;0;13,4;42
792,521;1,87;21,039857;105,489843;1,654;0;0,017;0,149;-0,048;-0,044;-1,002;0,018;-0,001;0;0;12,3;0,1;190,9;0;12,9;42
792,771;1,84;21,039857;105,489842;1,654;0;0,016;0,154;-0,068;-0,009;-1,003;0,018;-0,001;0;0;12,3;0;190,9;0;12,9;42
793,02;1,85;21,039857;105,489842;1,655;0;0,017;0,174;-0,044;-0,004;-1,004;0,018;-0,002;0;0;12,3;0;190,9;0;12,9;42
793,27;1,85;21,039857;105,489842;1,655;0;0,016;0,211;-0,047;-0,051;-1,003;0,018;-0,002;0;0;12,3;0,2;190,9;0;12,9;42
793,52;1,85;21,039857;105,489842;1,655;0;0,016;0,161;-0,037;-0,018;-1,001;0,018;-0,001;0;0;12,3;0,1;190,9;0;12,9;42
793,769;1,86;21,039857;105,489842;1,655;0;0,016;0,064;-0,064;-0,027;-1,002;0,017;-0,001;0;0;11,7;0,1;190,9;0;12,3;42
794,019;1,85;21,039857;105,489842;1,654;0;0,015;0,224;-0,046;-0,023;-1,002;0,019;-0,001;0;0;11,7;0,1;190,9;0;12,3;42
794,268;1,84;21,039857;105,489842;1,653;0;0,017;-0,042;-0,148;-0,16;-0,993;0,023;0;0;0;12,3;0;190,9;0;12,9;42
794,518;1,86;21,039857;105,489842;1,653;0;0,018;0,214;-0,126;0,126;-0,998;0,018;-0,002;0;0;12,3;0;190,9;0;12,9;42
794,768;1,88;21,039857;105,489842;1,655;-0,004;0,018;0,175;-0,027;0,011;-1,006;0,019;0,003;0;0;12,3;0;190,9;0;12,9;42
795,017;1,9;21,039857;105,489842;1,652;-0,004;0,018;-0,117;0,083;-0,261;-1,001;0,021;0,011;0;0;12,3;0;190,9;0;12,9;42
795,267;1,88;21,039857;105,489841;1,647;0,001;0,017;-0,082;-0,029;0,057;-1;0,019;-0,011;0;0;11,7;0;190,9;0;12,3;42
795,516;1,87;21,039857;105,489841;1,639;0,003;0,015;0,263;-0,172;-0,071;-1,034;0,031;0,003;0;0;11,7;0,1;190,9;0;12,3;42
795,766;1,88;21,039857;105,48984;1,65;0,001;0,016;0,693;-0,217;0,158;-0,994;0,035;-0,012;0;0;12,3;0,2;190,9;0;12,9;42
796,016;1,89;21,039857;105,48984;1,649;-0,011;0,016;-0,398;-0,103;-0,489;-1,013;0,005;0,021;0;0;12,3;0,1;190,9;0;12,9;42
796,265;1,9;21,039857;105,48984;1,645;-0,007;0,01;-0,085;0,09;0,153;-1,006;-0,011;0,014;0;0;12,3;0,1;190,9;0;12,9;42
796,515;1,92;21,039857;105,48984;1,645;-0,001;0,007;-0,036;0,178;-0,003;-1,002;-0,026;-0,018;0;0;12,3;0;190,9;0;12,9;42
796,764;1,95;21,039857;105,489839;1,651;0,004;0,016;0,636;-0,052;-0,053;-1,008;-0,003;0;0;0;12,3;0,2;190,9;0;12,9;42
797,014;1,96;21,039857;105,489839;1,654;-0,004;0,017;-0,041;-0,008;0,002;-1,014;0,007;0,016;0;0;12,8;0;190,9;0;13,4;42
797,264;1,94;21,039857;105,489839;1,653;0,003;0,015;0,21;-0,193;-0,077;-1,008;0,009;-0,015;0;0;12,8;0,1;190,9;0;13,4;42
797,513;1,92;21,039857;105,489839;1,653;-0,002;0,016;0,133;-0,001;-0,126;-0,999;0,013;-0,001;0;0;11,7;0;190,9;0;12,3;42
797,763;1,91;21,039856;105,489839;1,652;0,001;0,016;0,152;-0,049;-0,021;-1,002;0,015;0,003;0;0;11,7;0,1;190,9;0;12,3;42
798,012;1,92;21,039856;105,489838;1,652;0;0,016;0,133;-0,059;-0,05;-1,002;0,021;-0,005;0;0;11,7;0,1;190,9;0;12,3;42
798,262;1,92;21,039856;105,489838;1,652;0;0,014;0,157;-0,009;-0,036;-1,009;0,009;0,003;0;0;11,7;0,1;190,9;0;12,3;42
798,512;1,91;21,039856;105,489838;1,652;-0,003;0,014;0,242;-0,119;-0,093;-1,001;0,011;0,036;0;0;12,3;0,1;190,9;0;12,9;42
798,761;1,93;21,039856;105,489837;1,652;0,003;0,014;0,182;-0,217;-0,082;-1,008;0,022;-0,003;0;0;11,7;0;190,9;0;12,3;42
799,011;1,9;21,039856;105,489837;1,655;0,002;0,016;0,366;-0,15;0,196;-1,019;0,015;-0,013;0;0;12,3;0;190,9;0;12,9;42
799,26;1,87;21,039856;105,489837;1,656;-0,003;0,018;0,027;-0,015;-0,294;-0,997;0,019;0,009;0;0;12,3;0;190,9;0;12,9;42
799,51;1,9;21,039856;105,489837;1,652;-0,001;0,016;-0,058;-0,009;-0,1;-1,001;0,015;-0,005;0;0;12,3;0,1;190,9;0;12,9;42
799,76;1,91;21,039856;105,489837;1,653;0,002;0,015;0,241;-0,111;0,109;-1,003;0,019;-0,002;0;0;12,3;0,2;190,9;0;12,9;42
800,009;1,9;21,039856;105,489836;1,653;-0,001;0,016;-0,018;-0,007;-0,147;-1,005;0,019;-0,002;0;0;11,7;0,2;190,9;0;12,3;42
800,259;1,92;21,039856;105,489836;1,652;0,001;0,016;0,239;-0,056;0,136;-1,001;0,017;-0,005;0;0;10,8;0;190,9;0;11,4;42
800,508;1,91;21,039856;105,489835;1,652;0;0,017;0,017;-0,006;-0,044;-1,001;0,019;0,001;0;0;12,8;0,1;190,9;0;13,4;42
800,758;1,89;21,039855;105,489836;1,651;0,002;0,016;0,235;-0,047;0,077;-1,003;0,016;-0,006;0;0;11,7;0,1;190,9;0;12,3;42
801,008;1,9;21,039855;105,489835;1,652;0;0,017;0,173;-0,046;-0,116;-1,003;0,016;0;0;0;11,7;0,1;190,9;0;12,3;42
801,257;1,92;21,039855;105,489834;1,651;0,001;0,015;0,058;-0,062;-0,001;-1,002;0,011;-0,002;0;0;12,3;0,2;190,9;0;12,9;42
801,507;1,91;21,039854;105,489834;1,651;0;0,017;0,119;-0,017;0,015;-1,003;0,022;0;0;0;12,8;0,3;190,9;0;13,4;42
801,756;1,92;21,039854;105,489833;1,651;0;0,016;0,119;-0,083;-0,006;-1,001;0,017;-0,003;0;0;12,8;0,5;190,9;0;13,4;42
802,006;1,92;21,039854;105,489832;1,652;0;0,017;0,105;-0,088;-0,047;-1,003;0,018;-0,001;0;0;11,7;0,2;190,9;0;12,3;42
802,256;1,91;21,039854;105,489832;1,652;0,001;0,016;0,108;-0,034;-0,043;-1,004;0,017;-0,006;0;0;12,8;0,3;190,9;0;13,4;42
802,505;1,91;21,039855;105,489832;1,652;0;0,017;0,202;-0,049;-0,045;-1,003;0,017;-0,001;0;0;11,4;0,3;190,9;0;12;42
802,755;1,91;21,039854;105,489831;1,652;0,001;0,016;0,099;-0,033;-0,02;-1,002;0,017;-0,002;0;0;11,4;0,3;190,9;0;12;42
803,004;1,92;21,039854;105,489831;1,652;0;0,017;0,101;-0,073;0;-1,003;0,018;-0,001;0;0;12,8;0,2;190,9;0;13,4;42
803,254;1,95;21,039854;105,48983;1,652;0,001;0,016;0,092;-0,022;-0,029;-1,002;0,017;-0,002;0;0;12,3;0,2;190,9;0;12,9;42
803,504;1,96;21,039853;105,48983;1,652;0;0,017;0,06;-0,111;-0,048;-1,002;0,018;-0,001;0;0;11,4;0,1;190,9;0;12;42
803,753;1,97;21,039854;105,489829;1,652;0;0,016;0,107;-0,01;-0,058;-1,003;0,018;-0,002;0;0;11,7;0,3;190,9;0;12,3;42
804,003;2,01;21,039853;105,489829;1,653;0;0,016;0,095;-0,067;-0,033;-1,003;0,018;-0,002;0;0;11,7;0,5;190,9;0;12,3;42
804,252;2,03;21,039853;105,489828;1,652;0;0,017;0,16;-0,039;-0,026;-1,003;0,018;-0,002;0;0;13,7;0,2;190,9;0;14,4;42
804,502;2,02;21,039853;105,489828;1,651;0;0,017;0,129;-0,017;-0,02;-1,002;0,018;-0,001;0;0;11,7;0,2;190,9;0;12,3;42
804,752;2,01;21,039853;105,489828;1,652;0,001;0,016;0,153;-0,074;-0,072;-1,003;0,018;-0,002;0;0;11,7;0,2;190,9;0;12,3;42
805,001;2,03;21,039853;105,489827;1,652;0,001;0,016;0,122;-0,001;0,042;-1,003;0,018;-0,002;0;0;12,3;0,3;190,9;0;12,9;42
805,251;2;21,039852;105,489827;1,653;0;0,016;0,243;-0,095;-0,026;-1,002;0,018;-0,002;0;0;11,7;0,4;190,9;0;12,3;42
805,5;1,99;21,039852;105,489827;1,652;0;0,016;0,111;-0,023;-0,028;-1,003;0,018;-0,002;0;0;12,3;0,3;190,9;0;12,9;42
805,75;2,01;21,039852;105,489826;1,653;0;0,016;0,207;-0,003;-0,009;-1,003;0,017;-0,002;0;0;12,3;0,4;190,9;0;12,9;42
806;1,98;21,039851;105,489826;1,654;0;0,016;0,147;-0,056;0,006;-1,003;0,017;-0,001;0;0;12,8;0,4;190,9;0;13,4;42
806,249;1,98;21,039851;105,489825;1,653;0;0,016;0,173;-0,013;-0,033;-1,002;0,017;-0,002;0;0;12,8;0,4;190,9;0;13,4;42
806,499;1,96;21,039851;105,489825;1,653;0;0,016;0,239;-0,022;-0,044;-1,001;0,018;-0,002;0;0;11,7;0,4;190,9;0;12,3;42
806,748;1,94;21,039851;105,489824;1,653;0;0,016;0,118;-0,09;-0,003;-1,003;0,018;-0,001;0;0;12,3;0,5;190,9;0;12,9;42
806,998;1,94;21,03985;105,489823;1,654;0;0,016;0,117;-0,027;-0,023;-1,003;0,018;-0,002;0;0;10,8;0,4;190,9;0;11,4;42
807,248;1,94;21,03985;105,489822;1,653;0;0,017;0,108;-0,003;-0,041;-1,004;0,018;-0,002;0;0;10,8;0,4;190,9;0;11,4;42
807,497;1,96;21,03985;105,489822;1,653;0;0,016;0,095;-0,007;-0,035;-1,003;0,018;-0,002;0;0;12,8;0,4;190,9;0;13,4;42
807,747;1,92;21,039849;105,489821;1,652;0;0,016;0,152;-0,057;-0,081;-1,002;0,018;-0,002;0;0;11,7;0,4;190,9;0;12,3;42
807,996;1,96;21,039849;105,489822;1,652;0;0,016;0,16;-0,077;-0,073;-1,002;0,017;-0,002;0;0;11,7;0,3;190,9;0;12,3;42
808,246;1,98;21,039849;105,489822;1,652;0;0,016;0,253;0,01;-0,005;-1,003;0,018;-0,001;0;0;11,7;0,4;190,9;0;12,3;42
808,496;1,98;21,039849;105,489821;1,653;0;0,017;0,138;-0,066;-0,005;-1,003;0,018;-0,002;0;0;11,7;0,3;190,9;0;12,3;42
808,745;1,97;21,039849;105,48982;1,653;0;0,016;0,157;-0,004;-0,02;-1,003;0,018;-0,002;0;0;11,7;0,5;190,9;0;12,3;42
808,995;1,96;21,039849;105,48982;1,652;0,001;0,017;0,071;-0,007;0,017;-0,999;0,025;0;0;0;11,7;0,5;190,9;0;12,3;42
809,244;1,96;21,039849;105,48982;1,652;-0,001;0,017;0,12;-0,07;-0,052;-1,014;0,022;0,001;0;0;12,3;0,6;190,9;0;12,9;42
809,494;1,94;21,039848;105,489819;1,652;0;0,017;0,106;-0,071;0,063;-1,004;0,019;-0,005;0;0;11,7;0,3;190,9;0;12,3;42
809,744;1,96;21,039848;105,489819;1,652;0;0,016;0,102;0,015;-0,051;-1,002;0,014;-0,001;0;0;13,3;0,4;190,9;0;13,9;42
809,993;1,98;21,039848;105,489818;1,652;0,001;0,017;0,187;-0,027;-0,014;-1,005;0,018;0;0;0;8,9;0,5;190,9;0;9,3;42
810,243;1,96;21,039848;105,489818;1,652;0;0,016;0,068;0,002;0,034;-1,002;0,017;-0,005;0;0;11,4;0,5;190,9;0;12;42
810,492;1,94;21,039848;105,489817;1,652;0;0,016;0,164;-0,01;0,007;-1,001;0,019;-0,001;0;0;13,3;0,5;190,9;0;13,9;42
810,742;1,96;21,039848;105,489817;1,652;0,001;0,016;0,104;-0,025;-0,004;-1,001;0,018;-0,001;0;0;11,7;0,4;190,9;0;12,3;42
810,992;1,97;21,039848;105,489817;1,652;0;0,016;0,151;-0,073;-0,006;-1,004;0,018;-0,002;0;0;14,5;0,6;190,9;0;15,2;42
811,241;1,99;21,039847;105,489817;1,653;0;0,016;0,159;-0,077;-0,03;-1,003;0,016;-0,002;0;0;12,3;0,5;190,9;0;12,9;42
811,491;1,98;21,039847;105,489817;1,653;0;0,017;0,133;0,003;-0,038;-1,002;0,019;0;0;0;12,3;0,5;190,9;0;12,9;42
811,74;1,99;21,039847;105,489817;1,652;0,001;0,016;0,052;-0,015;-0,118;-1,001;0,017;-0,007;0;0;9,6;0,5;190,9;0;10,1;42
811,99;1,97;21,039847;105,489817;1,652;0;0,013;0,155;-0,06;-0,071;-1,005;0,002;0,001;0;0;9,6;0,6;190,9;0;10,1;42
812,24;1,98;21,039847;105,489816;1,653;0,002;0,013;0,125;0,031;-0,126;-1,002;0,014;-0,009;0;0;14;0,4;190,9;0;14,7;42
812,489;2;21,039847;105,489815;1,653;0;0,018;0,136;0,009;0,226;-1,004;0,017;0;0;0;11,7;0,4;190,9;0;12,3;42
812,739;2,01;21,039847;105,489815;1,653;0;0,013;0,05;-0,042;-0,076;-0,99;-0,008;0,011;0;0;12,8;0,5;190,9;0;13,4;42
812,988;2,01;21,039847;105,489815;1,66;0;0,014;0,565;-0,065;-0,037;-1,026;0;0,021;0;0;11,7;0,6;190,9;0;12,3;42
813,238;2,02;21,039847;105,489816;1,66;-0,003;0,018;0,057;0,048;0,051;-1,03;0,026;-0,008;0;0;10,2;0,6;190,9;0;10,7;42
813,488;1,98;21,039847;105,489816;1,656;0;0,016;-0,009;-0,021;-0,106;-1,013;0,025;-0,018;0;0;10,8;0,2;190,9;0;11,4;42
813,737;1,98;21,039847;105,489816;1,66;-0,001;0,014;0,373;-0,008;-0,184;-0,994;0,035;0,007;0;0;11,4;0,3;190,9;0;12;42
813,987;1,96;21,039847;105,489816;1,658;0;0,014;0,09;-0,009;0,079;-1,014;0,018;-0,011;0;0;12,8;0,4;190,9;0;13,4;42
814,236;1,98;21,039848;105,489816;1,657;-0,005;0,014;0,011;0,108;-0,186;-1,004;0,027;0,017;0;0;12,3;0,4;190,9;0;12,9;42
814,486;2;21,039848;105,489816;1,653;0,004;0,014;0,025;-0,1;0,045;-0,999;0,03;-0,012;0;0;12,8;0,4;190,9;0;13,4;42
814,736;1,99;21,039848;105,489816;1,656;0;0,015;0,164;0,029;-0,023;-0,994;0,026;0,001;0;0;11,7;0,4;190,9;0;12,3;42
814,985;2,01;21,039848;105,489815;1,653;0,001;0,014;0,19;0,05;-0,092;-1,002;0,011;-0,003;0;0;11,7;0,3;190,9;0;12,3;42
815,235;2,01;21,039848;105,489815;1,654;0,001;0,017;0,143;-0,02;0,027;-1,006;0,018;0;0;0;11,7;0,3;190,9;0;12,3;42
815,484;2,03;21,039848;105,489814;1,653;0,001;0,015;0,07;-0,012;0,011;-1,005;0,013;-0,005;0;0;11,7;0,2;190,9;0;12,3;42
815,734;2,01;21,039848;105,489813;1,654;0,001;0,016;0,142;-0,043;0,032;-1,002;0,018;0;0;0;11,4;0,3;190,9;0;12;42
815,984;2,01;21,039848;105,489813;1,653;0,001;0,015;0,175;-0,068;-0,103;-1,001;0,018;-0,006;0;0;12,8;0,3;190,9;0;13,4;42
816,233;2;21,039848;105,489813;1,653;0,001;0,016;0,132;-0,07;0,002;-1,001;0,018;0;0;0;12,3;0,4;190,9;0;12,9;42
816,483;2;21,039848;105,489812;1,654;0,001;0,016;0,196;-0,046;-0,072;-1,003;0,016;-0,003;0;0;12,8;0,3;190,9;0;13,4;42
816,732;2;21,039848;105,489812;1,655;0,001;0,016;0,175;-0,051;0,001;-1,004;0,018;-0,002;0;0;11,4;0,3;190,9;0;12;42
816,982;2;21,039848;105,489811;1,654;0;0,016;0,155;-0,115;-0,021;-1,003;0,016;-0,003;0;0;11,4;0,3;190,9;0;12;42
817,232;2;21,039848;105,48981;1,654;0,001;0,016;0,158;0;0,02;-1,003;0,018;0;0;0;12,3;0,1;190,9;0;12,9;42
817,481;1,98;21,039847;105,489809;1,654;0,001;0,016;0,137;-0,019;-0,061;-1,002;0,018;-0,002;0;0;11,7;0,3;190,9;0;12,3;42
817,731;1,97;21,039847;105,48981;1,654;0,001;0,016;0,168;-0,064;-0,002;-1,003;0,018;-0,001;0;0;11,4;0,3;190,9;0;12;42
817,98;1,97;21,039847;105,489809;1,653;0;0,017;0,103;-0,005;-0,006;-1,003;0,018;-0,002;0;0;12,3;0,2;190,9;0;12,9;42
818,23;1,96;21,039847;105,489808;1,653;0;0,016;0,104;0,006;0,007;-1,003;0,018;-0,002;0;0;12,8;0,3;190,9;0;13,4;42
818,48;1,98;21,039847;105,489808;1,653;0,001;0,016;0,198;-0,002;-0,058;-1,004;0,018;-0,002;0;0;12,8;0,3;190,9;0;13,4;42
818,729;1,99;21,039847;105,489808;1,654;0;0,017;0,147;-0,088;-0,039;-1,004;0,018;-0,001;0;0;11,7;0,2;190,9;0;12,3;42
818,979;1,99;21,039846;105,489807;1,654;0;0,016;0,214;-0,038;-0,07;-1,004;0,017;-0,002;0;0;10,8;0,1;190,9;0;11,4;42
819,228;2;21,039846;105,489806;1,653;0;0,016;0,086;-0,015;-0,063;-1,003;0,018;-0,002;0;0;12,8;0,2;190,9;0;13,4;42
819,478;2,01;21,039846;105,489806;1,654;0;0,016;0,202;-0,095;0,017;-1,003;0,018;-0,002;0;0;10,8;0,3;190,9;0;11,4;42
819,728;2;21,039846;105,489807;1,654;0;0,016;0,11;-0,018;-0,035;-1,004;0,018;-0,002;0;0;12,3;0,2;190,9;0;12,9;42
819,977;1,98;21,039846;105,489807;1,654;0;0,017;0,146;-0,041;-0,012;-1,003;0,018;-0,002;0;0;11,4;0,3;190,9;0;12;42
820,227;1,97;21,039846;105,489806;1,654;0;0,016;0,183;-0,055;-0,072;-1,003;0,018;-0,002;0;0;8,9;0,3;190,9;0;9,4;42
820,476;2,02;21,039846;105,489805;1,654;0,001;0,016;0,099;-0,011;0,001;-1,002;0,018;-0,002;0;0;12,3;0,2;190,9;0;12,9;42
820,726;2,07;21,039845;105,489805;1,654;0;0,016;0,105;-0,033;-0,01;-1,003;0,017;-0,002;0;0;13,7;0,4;190,9;0;14,4;42
820,976;2,04;21,039845;105,489804;1,654;0,001;0,016;0,114;-0,024;-0,017;-1,003;0,018;-0,002;0;0;10,8;0,2;190,9;0;11,4;42
821,225;2,08;21,039845;105,489804;1,655;0;0,017;0,216;-0,043;-0,027;-1;0,024;-0,001;0;0;11,4;0,3;190,9;0;12;42
821,475;2,12;21,039845;105,489805;1,654;0,001;0,016;0,17;-0,032;-0,038;-1,008;0,015;-0,005;0;0;10,2;0,2;190,9;0;10,7;42
821,724;2,1;21,039845;105,489804;1,654;0;0,017;0,124;-0,05;-0,016;-1,007;0,018;0;0;0;11,4;0,3;190,9;0;12;42
821,974;2,07;21,039845;105,489803;1,653;0,001;0,015;0,129;-0,061;-0,017;-1,003;0,016;-0,003;0;0;12,3;0,3;190,9;0;12,9;42
822,224;2,06;21,039844;105,489802;1,653;0,001;0,016;0,151;-0,044;-0,021;-1,001;0,018;0;0;0;13,3;0,2;190,9;0;13,9;42
822,473;2,06;21,039844;105,489802;1,653;0,001;0,016;0,13;-0,049;-0,017;-1,002;0,016;-0,006;0;0;11,7;0,6;190,9;0;12,3;42
822,723;2,09;21,039844;105,489802;1,653;0;0,016;0,153;-0,036;0,017;-1,002;0,018;0;0;0;12,3;0,5;190,9;0;12,9;42
822,972;2,07;21,039844;105,489801;1,652;0;0,016;0,072;-0,048;-0,024;-1,002;0,017;-0,002;0;0;11,7;0,5;190,9;0;12,3;42
823,222;2,08;21,039844;105,489801;1,653;0;0,017;0,132;-0,067;-0,007;-1,003;0,018;-0,001;0;0;12,3;0,3;190,9;0;12,9;42
823,472;2,04;21,039844;105,4898;1,653;0;0,016;0,12;-0,03;-0,011;-1,003;0,017;-0,002;0;0;11,4;0,3;190,9;0;12;42
823,721;2,02;21,039844;105,489799;1,654;0;0,017;0,197;-0,003;-0,007;-1,003;0,018;-0,002;0;0;11,7;0,8;190,9;0;12,3;42
823,971;2,02;21,039843;105,489798;1,653;0;0,017;0,135;-0,026;-0,062;-1,003;0,018;-0,002;0;0;11,7;0,8;190,9;0;12,3;42
824,22;2,01;21,039843;105,489798;1,653;0;0,016;0,101;-0,039;-0,064;-1,004;0,015;-0,003;0;0;9,6;0,6;190,9;0;10,1;42
824,47;2,02;21,039843;105,489797;1,653;0,001;0,016;0,084;-0,044;-0,034;-1,007;0,015;0;0;0;11,4;0,5;190,9;0;12;42
824,72;2,04;21,039843;105,489796;1,654;0;0,017;0,185;-0,095;-0,019;-1,005;0,02;-0,006;0;0;11,7;0,4;190,9;0;12,3;42
824,969;2,02;21,039843;105,489796;1,656;0;0,019;0,204;-0,023;0,026;-1,001;0,026;-0,001;0;0;12,3;0,5;190,9;0;12,9;42
825,219;2,01;21,039843;105,489797;1,658;0;0,02;0,205;-0,036;0,049;-1;0,023;0,001;0;0;12,8;0,3;190,9;0;13,4;42
825,468;2,02;21,039843;105,489797;1,658;0,001;0,018;0,2;-0,028;0,016;-1,002;0,016;-0,011;0;0;11,4;0,5;190,9;0;12;42
825,718;2;21,039843;105,489797;1,661;-0,002;0,025;0,202;-0,057;0,012;-0,986;0,084;0,011;0;0;12,3;0,5;190,9;0;12,9;42
825,968;1,97;21,039842;105,489797;1,661;0;0,027;0,193;-0,145;0,245;-0,998;0,029;0,002;0;0;12,3;0,6;190,9;0;12,9;42
826,217;1,96;21,039842;105,489797;1,655;0;0,02;-0,231;-0,101;0,073;-1,008;-0,013;-0,005;0;0;11,7;0,6;190,9;0;12,3;42
826,467;1,96;21,039843;105,489797;1,653;-0,005;0,021;0,252;-0,015;-0,376;-1,034;0,031;0,015;0;0;11,4;0,6;190,9;0;12;42
826,716;2,01;21,039843;105,489799;1,655;-0,006;0,017;0,18;0,059;-0,095;-1,006;0,036;0,021;0;0;11,7;0,5;190,9;0;12,3;42
826,966;2,03;21,039844;105,489802;1,655;0;0,017;0,078;0,01;-0,007;-1;0,023;-0,002;0;0;10,2;0,3;190,9;0;10,7;42
827,216;2,05;21,039844;105,489803;1,651;0,003;0,016;-0,09;-0,039;0,014;-1,009;0,034;-0,008;0;0;11,4;0,6;190,9;0;12;42
827,465;2,01;21,039845;105,489805;1,653;0,002;0,018;0,259;-0,116;0,014;-1,009;0,031;0;0;0;11,7;0,3;190,9;0;12,3;42
827,715;2,04;21,039845;105,489806;1,652;0;0,017;0,047;-0,075;-0,111;-0,994;0,006;0;0;0;11,7;0;190,9;0;12,3;42
827,964;2,04;21,039845;105,489806;1,652;0,002;0,015;0,125;0,047;-0,036;-0,99;0,005;-0,001;0;0;11,7;0,3;190,9;0;12,3;42
828,214;2,02;21,039845;105,489805;1,652;0,002;0,017;0,15;-0,04;0,09;-1,009;0,02;-0,004;0;0;11,4;0,7;190,9;0;12;42
828,464;2,04;21,039845;105,489806;1,653;0;0,018;0,027;-0,148;-0,013;-1,01;0,021;0,001;0;0;11,4;0,4;190,9;0;12;42
828,713;2;21,039846;105,489807;1,653;0,001;0,017;0,214;-0,003;-0,033;-1,006;0,014;-0,007;0;0;11,7;0,3;190,9;0;12,3;42
828,963;2,01;21,039846;105,489807;1,654;0;0,017;0,149;-0,026;-0,041;-0,998;0,019;-0,001;0;0;12,3;0,3;190,9;0;12,9;42
829,212;2,03;21,039846;105,489806;1,652;0;0,017;0,102;-0,007;-0,038;-1,001;0,018;-0,001;0;0;11,7;0;190,9;0;12,3;42
829,462;2,05;21,039846;105,489805;1,652;0;0,018;0,017;-0,077;0;-1,003;0,018;-0,001;0;0;11,7;0,4;190,9;0;12,3;42
829,712;2,02;21,039846;105,489806;1,652;0,001;0,017;0,125;-0,069;0,02;-1,003;0,017;-0,005;0;0;11,7;0,5;190,9;0;12,3;42
829,961;2,02;21,039845;105,489806;1,652;0;0,017;0,154;0,015;-0,091;-1,003;0,019;0;0;0;11,7;0;190,9;0;12,3;42
830,211;2,02;21,039844;105,489806;1,651;0,001;0,017;0,14;-0,07;-0,054;-1,001;0,018;-0,002;0;0;12,3;0;190,9;0;12,9;42
830,46;1,99;21,039844;105,489805;1,651;0,001;0,017;0,162;-0,012;0,049;-1,002;0,018;-0,002;0;0;11,7;0,3;190,9;0;12,3;42
830,71;2;21,039843;105,489805;1,651;0;0,017;0,111;-0,076;0,014;-1,004;0,018;-0,002;0;0;11,7;0,3;190,9;0;12,3;42
830,96;2,02;21,039844;105,489804;1,651;0;0,017;0,185;-0,076;-0,044;-1,003;0,018;-0,002;0;0;11,4;0;190,9;0;12;42
831,209;2,02;21,039844;105,489805;1,651;0;0,017;0,178;-0,019;-0,047;-1,004;0,018;-0,002;0;0;9,6;0,1;190,9;0;10,1;42
831,459;2,03;21,039843;105,489805;1,652;0;0,017;0,133;-0,042;-0,022;-1,002;0,018;-0,001;0;0;10,8;0,5;190,9;0;11,4;42
831,708;2,03;21,039842;105,489805;1,652;0;0,017;0,113;-0,031;0,02;-1,003;0,018;-0,002;0;0;11,4;0,1;190,9;0;12;42
831,958;2,03;21,039843;105,489805;1,652;0;0,017;0,201;-0,018;-0,053;-1,003;0,018;-0,002;0;0;11,4;0,1;190,9;0;12;42
832,208;2,04;21,039843;105,489805;1,652;0;0,017;0,14;-0,091;-0,055;-1,003;0,018;-0,002;0;0;8,9;0;190,9;0;9,4;42
832,457;2,05;21,039843;105,489805;1,652;0;0,017;0,183;0,003;-0,018;-1,003;0,018;-0,002;0;0;10,8;0,4;190,9;0;11,4;42
832,707;2,05;21,039842;105,489805;1,652;0;0,017;0,113;-0,074;-0,045;-1,002;0,018;-0,002;0;0;10,8;0,3;190,9;0;11,4;42
832,956;2,05;21,039845;105,489808;1,653;0;0,016;0,156;-0,086;-0,012;-1,003;0,018;-0,002;0;0;11,4;0,6;190,9;0;12;42
833,206;2,05;21,039843;105,489805;1,652;0;0,017;0,119;-0,018;-0,041;-1,003;0,018;-0,002;0;0;11,4;0,3;190,9;0;12;42
833,456;2,04;21,039841;105,489802;1,653;0;0,017;0,081;-0,121;-0,016;-1,003;0,018;-0,002;0;0;11,4;0;190,9;0;12;42
833,705;2,05;21,039843;105,489804;1,654;0;0,017;0,156;-0,018;-0,009;-1,003;0,018;-0,002;0;0;10,8;0;190,9;0;11,4;42
833,955;2,06;21,039843;105,489804;1,653;0;0,017;0,18;-0,081;-0,047;-1,004;0,018;-0,002;0;0;11,7;0,3;190,9;0;12,3;42
834,204;2,04;21,039843;105,489805;1,652;0;0,017;0,128;-0,054;0,021;-1,003;0,018;-0,002;0;0;10,8;0,2;190,9;0;11,4;42
834,454;2,03;21,039843;105,489805;1,652;0;0,018;0,154;-0,044;-0,02;-1,003;0,018;-0,002;0;0;11,7;0;190,9;0;12,3;42
834,704;2,02;21,039843;105,489805;1,651;0;0,017;0,121;0;-0,057;-1,003;0,018;-0,002;0;0;11,7;0;190,9;0;12,3;42
834,953;2,03;21,039843;105,489806;1,651;0;0,017;0,081;-0,089;-0,019;-1,003;0,018;-0,002;0;0;11,7;0;190,9;0;12,3;42
835,203;2,06;21,039844;105,489806;1,651;0;0,017;0,161;-0,038;-0,016;-1,003;0,018;-0,002;0;0;9,6;0;190,9;0;10,1;42
835,452;2,08;21,039844;105,489806;1,651;0;0,017;0,119;-0,077;0,063;-1,003;0,018;-0,002;0;0;11,7;0;190,9;0;12,3;42
835,702;2,12;21,039843;105,489805;1,651;0;0,017;0,118;-0,033;-0,071;-1,004;0,018;-0,002;0;0;12,8;0;190,9;0;13,4;42
835,952;2,14;21,039843;105,489806;1,651;0;0,017;0,163;-0,014;0,018;-1,003;0,018;-0,002;0;0;11,7;0;190,9;0;12,3;42
836,201;2,11;21,039843;105,489805;1,651;0;0,017;0,147;0,012;-0,016;-1,003;0,018;-0,001;0;0;12,3;0,1;190,9;0;12,9;42
836,451;2,09;21,039843;105,489805;1,65;0,001;0,017;0,109;0,009;0,018;-1,004;0,018;-0,003;0;0;11,4;0;190,9;0;12;42
836,7;2,08;21,039844;105,489807;1,65;0;0,017;0,069;-0,027;0,002;-1,004;0,018;-0,002;0;0;11,7;0,3;190,9;0;12,3;42
836,95;2,04;21,039844;105,489808;1,649;0;0,017;0,071;-0,036;-0,026;-1,003;0,019;0,001;0;0;11,7;0;190,9;0;12,3;42
837,2;2,02;21,039844;105,489807;1,649;-0,001;0,017;-0,036;-0,023;-0,003;-1,008;0,019;-0,004;0;0;12,3;0;190,9;0;12,9;42
837,449;2,05;21,039845;105,489807;1,661;0,004;0,012;1,113;3,048;-0,135;-0,989;0,022;0,032;0;0;11,4;0,2;190,9;0;12;42
837,699;2,08;21,039845;105,489807;1,697;0,031;0,008;1,743;0,639;0,075;-1,011;0,007;-0,006;0;0;11,7;0,2;190,9;0;12,3;42
837,948;2,12;21,039845;105,489806;1,765;0,051;0,008;3,682;2,071;-0,123;-1,025;0,022;-0,095;0;0;11,4;0,7;190,9;0;12;42
838,198;2,15;21,039844;105,489803;1,871;0,15;0,031;5,116;3,064;-1,744;-0,898;0,095;-0,149;0;0;10,8;1,2;190,9;0;11,4;42
838,448;2,13;21,039845;105,4898;1,969;0,095;-0,018;3,429;-4,5;-0,78;-0,55;-0,095;0,032;0;0;9,6;2,5;211,9;0;10,1;42
838,697;2,06;21,039845;105,489798;2,104;0,078;0;4,292;-2,003;-2,453;-0,963;0,026;-0,023;0;0;11,4;2,3;240,4;0;12;42
838,947;2,04;21,039846;105,489801;2,215;0,045;0,015;3,504;-1,982;0,325;-1,106;0,143;-0,098;0;0;11,4;2,3;251,8;0;12;42
839,196;2;21,039847;105,4898;2,291;0;-0,024;3,079;0,087;-0,249;-0,968;-0,134;0,048;0;0;11,4;1,6;258,8;0;12;42
839,446;2,03;21,039849;105,4898;2,387;-0,025;0,029;3,365;-0,556;-1,521;-0,956;0,11;0,036;0;0;10,8;1,7;250,3;0;11,4;42
839,696;2,03;21,039851;105,489801;2,458;-0,014;-0,003;2,379;-0,149;0,701;-1,089;-0,021;-0,04;0;0;11,7;2,5;256,9;0;12,3;42
839,945;2,07;21,039853;105,489799;2,498;-0,005;0,004;1,054;1,195;-1,223;-1,012;0,011;0,036;0;0;11,7;3,3;279,4;0;12,3;42
840,195;2,09;21,039856;105,4898;2,513;0,029;-0,005;0,409;0,945;0,415;-1,008;0,001;-0,057;0;0;11,4;4,3;288,7;0;12;42
840,444;2,1;21,039859;105,489802;2,508;0,064;-0,032;-0,026;-0,121;-0,708;-0,956;-0,065;-0,107;0;0;13,3;4,2;295,3;0;13,9;42
840,694;2,13;21,039863;105,489803;2,518;0,079;-0,041;0,934;0,524;0,366;-0,947;-0,032;-0,081;0;0;12,3;4,2;298,9;0;12,9;42
840,944;2,16;21,039866;105,489804;2,542;0,109;-0,048;1,264;0,187;-0,635;-1,128;-0,123;-0,161;0;0;11,4;4,4;301;0;12;42
841,193;2,17;21,039868;105,489804;2,593;0,135;-0,034;2,991;0,013;1,097;-0,928;0,014;-0,128;0;0;11,7;4,3;306,8;0;12,3;42
841,443;2,16;21,039872;105,489804;2,659;0,126;-0,032;3,487;-1,209;-0,664;-0,716;-0,047;-0,069;0;0;12,3;4,3;311;0;12,9;42
841,692;2,2;21,039874;105,489804;2,749;0,124;-0,017;4,479;-0,004;-1,827;-0,945;-0,067;-0,104;0;0;11,7;3,9;312,4;0;12,3;42
841,942;2,21;21,039876;105,489805;2,887;0,145;-0,018;7,141;-1,131;1,824;-0,728;-0,001;-0,148;0;0;12,8;3,6;312,5;0;13,4;42
842,192;2,22;21,039879;105,489806;3,063;0,152;0,021;7,176;1,11;-3,68;-0,965;0,062;-0,145;0;0;12,3;3,7;313,2;0;12,9;42
842,441;2,21;21,039882;105,489806;-3,026;0,153;0,018;8,743;-0,857;1,175;-1,015;-0,01;-0,148;0;0;12,3;3,2;313,6;0;12,9;42
842,691;2,2;21,039884;105,489808;-2,803;0,143;0,016;8,731;-0,378;-2,706;-0,967;-0,024;-0,136;0;0;12,3;2,7;314,4;0;12,9;42
842,94;2,17;21,039886;105,489808;-2,578;0,124;0,011;8,403;-1,956;0,528;-1,032;-0,011;-0,151;0;0;11,7;2;314,8;0;12,3;42
843,19;2,14;21,039889;105,489809;-2,392;0,093;-0,003;5,853;-1,45;-0,944;-1,006;-0,048;-0,103;0;0;11,4;1,9;314,8;0;12;42
843,44;2,09;21,039889;105,489808;-2,274;0,069;0,004;2,911;-0,882;-0,098;-0,94;0,01;-0,059;0;0;11,4;1,3;314,8;0;12;42
843,689;2,07;21,039889;105,489809;-2,211;0,027;-0,005;0,867;1,759;1,97;-0,707;-0,038;-0,038;0;0;11,7;0,7;314,8;0;12,3;42
843,939;2,08;21,03989;105,489811;-2,221;0,003;-0,01;-0,94;-0,082;-1,309;-0,929;0,018;0,012;0;0;11,7;0,5;314,8;0;12,3;42
844,188;2,08;21,03989;105,48981;-2,223;0,006;-0,029;0,254;-0,475;0,852;-1,061;-0,027;-0,012;0;0;11,7;0,1;314,8;0;12,3;42
844,438;2,12;21,03989;105,489809;-2,201;0,007;-0,036;0,636;-0,264;-0,237;-0,97;-0,036;-0,006;0;0;12,3;0;314,8;0;12,9;42
844,688;2,12;21,039891;105,489809;-2,199;0,001;-0,029;-0,233;-0,181;-0,445;-1,007;-0,016;-0,007;0;0;10,8;0,5;314,8;0;11,4;42
844,937;2,11;21,039891;105,48981;-2,198;0,002;-0,038;0,143;-0,11;0,545;-1,001;-0,041;-0,008;0;0;11,7;0,4;314,8;0;12,3;42
845,187;2,13;21,039892;105,489812;-2,192;0,001;-0,036;0,2;-0,073;-0,413;-1,002;-0,032;0,002;0;0;11,4;0,3;314,8;0;12;42
845,436;2,13;21,039892;105,48981;-2,194;0,001;-0,036;0,108;-0,032;0,059;-0,998;-0,034;-0,008;0;0;11,7;0,3;314,8;0;12,3;42
845,686;2,14;21,039893;105,489811;-2,19;0,001;-0,037;0,19;-0,086;0,192;-1,003;-0,036;0;0;0;11,7;0,2;314,8;0;12,3;42
845,936;2,13;21,039893;105,489812;-2,19;0,001;-0,037;0,077;-0,007;-0,231;-1,003;-0,036;-0,006;0;0;11,7;0,3;314,8;0;12,3;42
846,185;2,13;21,039893;105,489811;-2,19;0,001;-0,037;0,227;0,003;0,059;-1,002;-0,036;-0,002;0;0;11,4;0,3;314,8;0;12;42
846,435;2,13;21,039893;105,489811;-2,191;0,001;-0,038;0,097;-0,07;-0,016;-1,004;-0,037;-0,002;0;0;11,7;0,2;314,8;0;12,3;42
846,684;2,12;21,039894;105,489812;-2,19;0,001;-0,037;0,236;-0,042;-0,078;-1,005;-0,036;-0,001;0;0;11,7;0,3;314,8;0;12,3;42
846,934;2,13;21,039893;105,489811;-2,189;0,001;-0,037;0,223;-0,056;-0,088;-1,005;-0,036;-0,003;0;0;11,7;0,2;314,8;0;12,3;42
847,184;2,11;21,039893;105,489811;-2,188;0,001;-0,037;0,146;-0,042;0,084;-1,003;-0,036;-0,002;0;0;11,4;0,1;314,8;0;12;42
847,433;2,12;21,039893;105,489811;-2,189;0,001;-0,037;0,051;-0,025;-0,065;-1,004;-0,036;-0,003;0;0;12,3;0,3;314,8;0;12,9;42
847,683;2,1;21,039893;105,48981;-2,189;0,001;-0,037;0,179;0,004;-0,035;-1,004;-0,036;-0,002;0;0;11,4;0,1;314,8;0;12;42
847,932;2,12;21,039893;105,48981;-2,189;0,001;-0,037;0,177;-0,014;-0,074;-1,004;-0,036;-0,002;0;0;11,4;0,1;314,8;0;12;42
848,182;2,15;21,039893;105,48981;-2,188;0,001;-0,037;0,089;-0,052;-0,044;-1,004;-0,036;-0,002;0;0;10,8;0,3;314,8;0;11,4;42
848,432;2,14;21,039893;105,489809;-2,188;0,001;-0,038;0,158;-0,018;-0,055;-1,003;-0,036;-0,003;0;0;9,6;0,2;314,8;0;10,1;42
848,681;2,18;21,039893;105,489808;-2,188;0,001;-0,037;0,167;0,006;0,011;-1,004;-0,036;-0,002;0;0;10,8;0,2;314,8;0;11,4;42
848,931;2,22;21,039893;105,489809;-2,188;0,001;-0,037;0,096;-0,015;0,007;-1,003;-0,036;-0,003;0;0;9,6;0,2;314,8;0;10,1;42
849,18;2,23;21,039893;105,489808;-2,188;0,001;-0,037;0,107;-0,019;0,02;-1,003;-0,036;-0,002;0;0;11,7;0,2;314,8;0;12,3;42
849,43;2,25;21,039894;105,489808;-2,188;0,001;-0,037;0,166;0,005;-0,072;-1,003;-0,036;-0,002;0;0;11,4;0,3;314,8;0;12;42
849,68;2,2;21,039894;105,489808;-2,188;0,001;-0,037;0,085;-0,064;0,041;-1,004;-0,036;-0,002;0;0;11,4;0,2;314,8;0;12;42
849,929;2,22;21,039895;105,489808;-2,188;0,001;-0,037;0,163;-0,069;-0,043;-1,003;-0,036;-0,002;0;0;11,7;0,3;314,8;0;12,3;42
850,179;2,23;21,039895;105,489808;-2,187;0,001;-0,037;0,189;-0,108;-0,013;-1,003;-0,036;-0,003;0;0;11,7;0,1;314,8;0;12,3;42
850,428;2,22;21,039895;105,489808;-2,187;0,001;-0,037;0,229;0;-0,051;-1,003;-0,036;-0,002;0;0;12,3;0,1;314,8;0;12,9;42
850,678;2,21;21,039895;105,489808;-2,187;0,001;-0,037;0,114;-0,028;-0,03;-1,003;-0,036;-0,002;0;0;12,3;0,2;314,8;0;12,9;42
850,928;2,22;21,039895;105,489808;-2,186;0,001;-0,037;0,145;-0,041;-0,005;-1,003;-0,036;-0,002;0;0;11,4;0,3;314,8;0;12;42
851,177;2,2;21,039896;105,489809;-2,187;0,001;-0,037;0,152;0,029;-0,03;-1,003;-0,036;-0,002;0;0;12,3;0,2;314,8;0;12,9;42
851,427;2,19;21,039896;105,489809;-2,188;0,001;-0,037;0,139;-0,088;-0,042;-1,003;-0,036;-0,002;0;0;12,3;0,2;314,8;0;12,9;42
851,676;2,18;21,039896;105,489809;-2,188;0,001;-0,037;0,128;-0,064;-0,017;-1,003;-0,036;-0,002;0;0;11,7;0,1;314,8;0;12,3;42
851,926;2,19;21,039896;105,489809;-2,188;0,001;-0,038;0,188;-0,082;-0,021;-1,003;-0,036;-0,002;0;0;11,7;0,2;314,8;0;12,3;42
852,176;2,21;21,039896;105,489809;-2,187;0,001;-0,038;0,202;-0,026;-0,025;-1,004;-0,036;-0,002;0;0;10,8;0,1;314,8;0;11,4;42
852,425;2,2;21,039897;105,489809;-2,187;0,001;-0,038;0,158;-0,05;-0,044;-1,003;-0,036;-0,002;0;0;11,7;0,2;314,8;0;12,3;42
852,675;2,22;21,039897;105,489809;-2,187;0,001;-0,037;0,169;-0,025;-0,026;-1,003;-0,036;-0,002;0;0;11,4;0,2;314,8;0;12;42
852,924;2,2;21,039897;105,489809;-2,187;0,001;-0,037;0,105;-0,019;-0,036;-1,004;-0,036;-0,002;0;0;11,7;0,1;314,8;0;12,3;42
853,174;2,21;21,039897;105,489809;-2,187;0,001;-0,037;0,114;-0,052;-0,04;-1,003;-0,036;-0,002;0;0;11,7;0,1;314,8;0;12,3;42
853,424;2,22;21,039897;105,489809;-2,187;0,001;-0,037;0,181;-0,051;0,005;-1,003;-0,036;-0,002;0;0;12,3;0,1;314,8;0;12,9;42
853,673;2,2;21,039897;105,489809;-2,188;0,001;-0,037;0,138;-0,014;-0,063;-1,003;-0,036;-0,002;0;0;11,7;0,1;314,8;0;12,3;42
853,923;2,23;21,039897;105,489809;-2,188;0,001;-0,037;0,15;-0,051;-0,06;-1,004;-0,036;-0,002;0;0;11,4;0,1;314,8;0;12;42
854,172;2,23;21,039897;105,489809;-2,187;0;-0,037;0,16;-0,101;0,017;-1,004;-0,036;-0,002;0;0;11,4;0;314,8;0;12;42
854,422;2,2;21,039897;105,489808;-2,187;0,001;-0,037;0,144;-0,023;-0,004;-1,003;-0,036;-0,002;0;0;12,3;0;314,8;0;12,9;42
854,672;2,2;21,039897;105,489808;-2,187;0,001;-0,037;0,175;-0,05;-0,023;-1,004;-0,036;-0,002;0;0;11,7;0;314,8;0;12,3;42
854,921;2,2;21,039897;105,489808;-2,186;0,001;-0,037;0,17;-0,03;-0,027;-1,003;-0,036;-0,002;0;0;12,8;0;314,8;0;13,4;42
855,171;2,16;21,039897;105,489808;-2,186;0,001;-0,037;0,133;-0,076;0,019;-1,003;-0,036;-0,002;0;0;12,8;0;314,8;0;13,4;42
855,42;2,15;21,039897;105,489808;-2,186;0,001;-0,037;0,219;0,012;-0,006;-1,003;-0,036;-0,002;0;0;11,7;0;314,8;0;12,3;42
855,67;2,17;21,039897;105,489808;-2,186;0,001;-0,037;0,133;-0,074;-0,001;-1,004;-0,036;-0,002;0;0;10,8;0;314,8;0;11,4;42
855,92;2,17;21,039897;105,489808;-2,186;0,001;-0,037;0,106;-0,061;-0,067;-1,003;-0,036;-0,002;0;0;11,7;0,1;314,8;0;12,3;42
856,169;2,19;21,039897;105,489808;-2,187;0,001;-0,037;0,094;-0,05;-0,047;-1,004;-0,036;-0,002;0;0;11,4;0;314,8;0;12;42
856,419;2,19;21,039897;105,489808;-2,187;0,001;-0,037;0,175;-0,005;-0,018;-1,004;-0,036;-0,002;0;0;11,7;0;314,8;0;12,3;42
856,668;2,17;21,039897;105,489807;-2,187;0,001;-0,037;0,168;-0,042;-0,009;-1,003;-0,036;-0,002;0;0;12,3;0,1;314,8;0;12,9;42
856,918;2,18;21,039897;105,489807;-2,188;0,001;-0,038;0,168;0,034;-0,09;-1,004;-0,036;-0,002;0;0;12,8;0,7;314,8;0;13,4;42
857,168;2,2;21,039897;105,489807;-2,187;0,001;-0,037;0,2;-0,097;-0,046;-1,003;-0,036;-0,002;0;0;11,4;0,4;314,8;0;12;42
857,417;2,19;21,039897;105,489807;-2,187;0,001;-0,038;0,167;0,033;-0,058;-1,004;-0,036;-0,002;0;0;11,7;0,2;314,8;0;12,3;42
857,667;2,19;21,039897;105,489807;-2,187;0,001;-0,037;0,147;-0,014;-0,067;-1,003;-0,036;-0,002;0;0;12,3;0,1;314,8;0;12,9;42
857,916;2,18;21,039897;105,489806;-2,187;0,001;-0,038;0,173;-0,026;-0,043;-1,003;-0,036;-0,002;0;0;11,7;0,1;314,8;0;12,3;42
858,166;2,18;21,039897;105,489806;-2,187;0,001;-0,037;0,148;-0,006;-0,007;-1,003;-0,036;-0,002;0;0;11,7;0;314,8;0;12,3;42
858,416;2,19;21,039897;105,489806;-2,187;0,001;-0,037;0,158;-0,058;-0,01;-1,003;-0,036;-0,002;0;0;11,7;0,1;314,8;0;12,3;42
858,665;2,2;21,039897;105,489806;-2,187;0,001;-0,037;0,098;-0,049;-0,004;-1,003;-0,036;-0,002;0;0;11,7;0,1;314,8;0;12,3;42
858,915;2,17;21,039897;105,489806;-2,187;0,001;-0,037;0,179;-0,068;-0,032;-1,003;-0,036;-0,002;0;0;11,7;0;314,8;0;12,3;42
859,164;2,17;21,039897;105,489806;-2,188;0,001;-0,038;0,224;-0,007;0;-1,004;-0,036;-0,002;0;0;11,7;0,1;314,8;0;12,3;42
859,414;2,16;21,039897;105,489806;-2,189;0,001;-0,038;0,12;-0,011;-0,012;-1,003;-0,036;-0,002;0;0;10,8;0;314,8;0;11,4;42
859,664;2,18;21,039897;105,489806;-2,189;0,001;-0,038;0,145;-0,063;-0,014;-1,005;-0,037;0;0;0;11,7;0;314,8;0;12,3;42
859,913;2,18;21,039897;105,489806;-2,188;0,002;-0,038;0,228;0,005;0,031;-1,007;-0,038;-0,001;0;0;11,4;0;314,8;0;12;42
860,163;2,17;21,039897;105,489806;-2,188;0,002;-0,038;0,151;0,074;-0,056;-1,016;-0,038;0;0;0;11,7;0;314,8;0;12,3;42
860,412;2,17;21,039897;105,489806;-2,189;0;-0,038;0,102;-0,003;-0,172;-1,005;-0,041;0,006;0;0;11,7;0;314,8;0;12,3;42
860,662;2,18;21,039897;105,489806;-2,191;0;-0,039;0,052;-0,066;0,201;-1,002;-0,046;-0,004;0;0;12,3;0;314,8;0;12,9;42
860,912;2,16;21,039897;105,489806;-2,19;0;-0,039;0,097;-0,104;-0,104;-1,012;-0,043;-0,004;0;0;11,7;0,1;314,8;0;12,3;42
861,161;2,18;21,039897;105,489806;-2,19;0,001;-0,037;0,23;-0,002;-0,241;-1,007;-0,036;-0,004;0;0;11,7;0,1;314,8;0;12,3;42
861,411;2,16;21,039897;105,489806;-2,189;0,001;-0,037;0,116;-0,002;0,176;-1;-0,036;-0,002;0;0;11,4;0;314,8;0;12;42
861,66;2,17;21,039897;105,489806;-2,189;0,001;-0,039;0,052;-0,076;-0,078;-0,995;-0,037;-0,003;0;0;12,3;0;314,8;0;12,9;42
861,91;2,16;21,039897;105,489806;-2,189;0,001;-0,036;0,29;-0,036;0,12;-1,007;-0,033;-0,001;0;0;11,7;0;314,8;0;12,3;42
862,16;2,15;21,039897;105,489806;-2,19;0;-0,038;-0,024;-0,053;0,158;-0,994;-0,037;-0,003;0;0;12,3;0;314,8;0;12,9;42
862,409;2,14;21,039897;105,489806;-2,189;0,002;-0,039;0,162;0,001;-0,116;-0,999;-0,037;-0,004;0;0;11,7;0;314,8;0;12,3;42
862,659;2,14;21,039897;105,489806;-2,19;0,002;-0,036;0,235;0,013;-0,155;-1,011;-0,028;-0,001;0;0;11,7;0,1;314,8;0;12,3;42
862,908;2,13;21,039898;105,489807;-2,191;0,002;-0,037;0,076;-0,001;0,263;-1,01;-0,037;-0,002;0;0;11,7;1,2;314,8;0;12,3;42
863,158;2,16;21,039898;105,489807;-2,189;0,002;-0,038;0,123;-0,127;-0,14;-1;-0,039;-0,001;0;0;11,7;0,2;314,8;0;12,3;42
863,408;2,13;21,039898;105,489807;-2,189;0,002;-0,037;0,283;-0,018;-0,13;-1,004;-0,036;-0,004;0;0;11,7;0;314,8;0;12,3;42
863,657;2,1;21,039898;105,489807;-2,189;0,001;-0,037;0,049;-0,081;0,054;-1,009;-0,036;-0,002;0;0;12,3;0,1;314,8;0;12,9;42
863,907;2,09;21,039898;105,489807;-2,188;0,002;-0,037;0,21;0,037;-0,156;-0,997;-0,032;-0,001;0;0;11,4;0;314,8;0;12;42
864,156;2,09;21,039898;105,489807;-2,189;0,001;-0,036;0,189;-0,02;0,083;-0,999;-0,037;-0,004;0;0;11,4;0;314,8;0;12;42
864,406;2,08;21,039898;105,489807;-2,189;0,001;-0,036;0,052;-0,057;0,307;-0,998;-0,038;-0,001;0;0;11,4;0;314,8;0;12;42
864,656;2,09;21,039898;105,489807;-2,19;0,002;-0,038;0,141;-0,021;-0,043;-1,004;-0,04;-0,002;0;0;11,4;0;314,8;0;12;42
864,905;2,1;21,039898;105,489807;-2,19;0,001;-0,036;0,265;-0,075;-0,282;-0,998;-0,031;0;0;0;10,8;0,1;314,8;0;11,4;42
865,155;2,11;21,039898;105,489807;-2,192;0,001;-0,036;0,127;0,003;0,118;-1,006;-0,036;-0,005;0;0;12,8;0,1;314,8;0;13,4;42
865,404;2,12;21,039898;105,489807;-2,192;0,001;-0,038;0,036;-0,018;0,093;-1,002;-0,039;-0,001;0;0;10,2;0,1;314,8;0;10,7;42
865,654;2,17;21,039898;105,489807;-2,191;0,001;-0,038;0,16;-0,016;-0,193;-1,002;-0,036;-0,002;0;0;10,8;0,1;314,8;0;11,4;42
865,904;2,21;21,039899;105,489807;-2,19;0,001;-0,037;0,214;0,004;-0,025;-1,003;-0,037;-0,004;0;0;11,7;0,1;314,8;0;12,3;42
866,153;2,24;21,039899;105,489807;-2,19;0,001;-0,039;0,079;-0,041;0,073;-1,001;-0,039;-0,002;0;0;12,3;0;314,8;0;12,9;42
866,403;2,24;21,039898;105,489807;-2,189;0,001;-0,038;0,228;-0,034;-0,072;-1,007;-0,036;-0,002;0;0;10,8;0;314,8;0;11,4;42
866,652;2,23;21,039898;105,489807;-2,191;0,001;-0,037;0,188;-0,054;-0,018;-1,004;-0,036;-0,003;0;0;11,7;0;314,8;0;12,3;42
866,902;2,25;21,039898;105,489807;-2,19;0,001;-0,037;0,099;-0,069;0,065;-1,001;-0,036;-0,002;0;0;11,7;0;314,8;0;12,3;42
867,152;2,22;21,039898;105,489807;-2,189;0,001;-0,037;0,125;-0,047;-0,009;-1,002;-0,036;-0,002;0;0;11,7;0;314,8;0;12,3;42
867,401;2,18;21,039898;105,489807;-2,189;0,001;-0,037;0,193;-0,023;-0,107;-1,005;-0,036;-0,002;0;0;11,7;0;314,8;0;12,3;42
867,651;2,17;21,039899;105,489807;-2,189;0,001;-0,037;0,045;-0,115;-0,03;-1,003;-0,036;-0,002;0;0;10,8;0;314,8;0;11,4;42
867,9;2,17;21,039899;105,489807;-2,19;0,001;-0,037;0,191;-0,006;0,025;-1,003;-0,036;-0,002;0;0;10,8;0;314,8;0;11,4;42
868,15;2,17;21,039899;105,489807;-2,191;0,001;-0,038;0,104;-0,044;-0,051;-1,002;-0,036;-0,002;0;0;11,7;0;314,8;0;12,3;42
868,4;2,19;21,039899;105,489807;-2,191;0,001;-0,037;0,207;-0,024;0;-1,005;-0,036;-0,002;0;0;10,2;0;314,8;0;10,7;42
868,649;2,17;21,039899;105,489807;-2,191;0,001;-0,037;0,156;-0,014;-0,031;-1,004;-0,036;-0,002;0;0;10,8;0,1;314,8;0;11,4;42
868,899;2,19;21,039899;105,489806;-2,191;0,001;-0,037;0,089;-0,058;-0,028;-1,003;-0,036;-0,002;0;0;11,4;0;314,8;0;12;42
869,148;2,17;21,039899;105,489806;-2,19;0,001;-0,037;0,178;-0,09;-0,069;-1,003;-0,036;-0,002;0;0;11,7;0,1;314,8;0;12,3;42
869,398;2,18;21,039899;105,489806;-2,19;0,001;-0,037;0,143;-0,036;-0,021;-1,004;-0,036;-0,002;0;0;12,3;0,1;314,8;0;12,9;42
869,648;2,2;21,039899;105,489806;-2,19;0,001;-0,037;0,11;-0,03;-0,004;-1,004;-0,036;-0,002;0;0;12,8;0;314,8;0;13,4;42
869,897;2,22;21,039899;105,489806;-2,191;0,001;-0,037;0,123;-0,034;-0,008;-1,004;-0,036;-0,002;0;0;11,4;0,1;314,8;0;12;42
870,147;2,25;21,039899;105,489806;-2,19;0,001;-0,037;0,18;-0,105;-0,056;-1,003;-0,036;-0,002;0;0;11,7;0;314,8;0;12,3;42
870,396;2,26;21,039899;105,489806;-2,191;0,001;-0,037;0,13;-0,029;-0,011;-1,003;-0,036;-0,002;0;0;10,8;0;314,8;0;11,4;42
870,646;2,26;21,039899;105,489806;-2,19;0,001;-0,037;0,133;-0,047;-0,032;-1,004;-0,036;-0,002;0;0;12,8;0,1;314,8;0;13,4;42
870,896;2,25;21,039899;105,489806;-2,19;0,001;-0,037;0,144;-0,031;-0,045;-1,004;-0,036;-0,002;0;0;8,4;0;314,8;0;8,8;42
871,145;2,24;21,039899;105,489806;-2,19;0,001;-0,037;0,113;-0,045;-0,003;-1,003;-0,036;-0,002;0;0;11,7;0;314,8;0;12,3;42
871,395;2,23;21,039899;105,489806;-2,19;0,001;-0,037;0,194;-0,026;-0,003;-1,003;-0,036;-0,002;0;0;10,8;0,1;314,8;0;11,4;42
871,644;2,23;21,0399;105,489805;-2,192;0,001;-0,037;0,138;-0,01;-0,021;-1,004;-0,036;-0,002;0;0;4,5;0;314,8;0;4,8;42
871,894;2,22;21,0399;105,489805;-2,192;0,001;-0,037;0,187;-0,107;-0,023;-1,004;-0,036;-0,002;0;0;18,1;0,1;314,8;0;19;42
872,144;2,2;21,0399;105,489805;-2,192;0,001;-0,037;0,18;-0,068;-0,064;-1,004;-0,036;-0,002;0;0;13,7;0,1;314,8;0;14,4;42
872,393;2,18;21,0399;105,489805;-2,191;0,001;-0,037;0,03;-0,051;-0,026;-1,004;-0,036;-0,002;0;0;11,7;0,1;314,8;0;12,3;42
872,643;2,19;21,0399;105,489805;-2,189;0,001;-0,037;0,162;-0,018;-0,011;-1,004;-0,036;-0,002;0;0;12,3;0;314,8;0;12,9;42
872,892;2,23;21,0399;105,489805;-2,187;0,001;-0,037;0,155;-0,014;0,015;-1,004;-0,036;-0,002;0;0;12,3;0,1;314,8;0;12,9;42
873,142;2,2;21,039901;105,489805;-2,185;0,001;-0,037;0,212;0,017;-0,027;-1,004;-0,036;-0,002;0;0;11,7;0;314,8;0;12,3;42
873,392;2,21;21,039901;105,489806;-2,186;0,001;-0,037;0,09;-0,042;-0,062;-1,004;-0,036;-0,002;0;0;12,3;0,1;314,8;0;12,9;42
873,641;2,25;21,039901;105,489806;-2,187;0,001;-0,037;0,14;-0,03;0,013;-1,001;-0,037;-0,002;0;0;12,8;0;314,8;0;13,4;42
873,891;2,24;21,039901;105,489806;-2,187;0,002;-0,037;0,176;-0,011;-0,103;-0,998;-0,037;-0,004;0;0;11,4;0,5;314,8;0;12;42
874,14;2,25;21,039902;105,489806;-2,188;0,002;-0,037;0,216;-0,038;-0,029;-1,004;-0,036;-0,002;0;0;11,7;0,1;314,8;0;12,3;42
874,39;2,23;21,039902;105,489806;-2,188;0,001;-0,037;0,15;-0,014;-0,041;-1,006;-0,036;-0,003;0;0;12,3;0,2;314,8;0;12,9;42
874,64;2,24;21,039902;105,489806;-2,187;0,002;-0,037;0,13;-0,035;-0,046;-1,005;-0,036;-0,002;0;0;11,4;0,1;314,8;0;12;42
874,889;2,29;21,039903;105,489806;-2,187;0,001;-0,038;0,111;-0,021;-0,078;-1,002;-0,036;-0,002;0;0;11,7;0;314,8;0;12,3;42
875,139;2,33;21,039903;105,489807;-2,188;0,001;-0,037;0,132;-0,05;0,002;-1,004;-0,036;-0,002;0;0;11,4;0,1;314,8;0;12;42
875,388;2,34;21,039903;105,489807;-2,188;0,001;-0,037;0,088;-0,006;-0,024;-1,004;-0,036;-0,002;0;0;10,8;0;314,8;0;11,4;42
875,638;2,3;21,039904;105,489807;-2,187;0,001;-0,037;0,18;-0,107;-0,017;-1,004;-0,036;-0,002;0;0;11,7;0;314,8;0;12,3;42
875,888;2,31;21,039904;105,489808;-2,188;0,001;-0,037;0,153;-0,017;-0,012;-1,003;-0,036;-0,002;0;0;11,4;0;314,8;0;12;42
876,137;2,31;21,039905;105,489808;-2,188;0,001;-0,037;0,13;-0,06;-0,019;-1,004;-0,036;-0,002;0;0;10,8;0,1;314,8;0;11,4;42
876,387;2,3;21,039905;105,489808;-2,188;0,002;-0,037;0,149;-0,002;-0,006;-1,004;-0,036;-0,002;0;0;11,7;0;314,8;0;12,3;42
876,636;2,29;21,039905;105,489808;-2,188;0,001;-0,037;0,18;-0,075;-0,036;-1,003;-0,036;-0,002;0;0;12,8;0,1;314,8;0;13,4;42
876,886;2,31;21,039905;105,489808;-2,188;0,001;-0,037;0,162;-0,037;0,042;-1,004;-0,036;-0,002;0;0;12,3;0,2;314,8;0;12,9;42
877,136;2,29;21,039905;105,489809;-2,189;0,001;-0,037;0,048;-0,037;-0,023;-1,004;-0,036;-0,002;0;0;12,3;0;314,8;0;12,9;42
877,385;2,29;21,039905;105,489809;-2,188;0,001;-0,037;0,181;-0,081;0,022;-1,004;-0,036;-0,002;0;0;12,8;0;314,8;0;13,4;42
877,635;2,27;21,039906;105,489809;-2,189;0,001;-0,037;0,137;-0,046;-0,068;-1,003;-0,036;-0,002;0;0;11,7;0;314,8;0;12,3;42
877,884;2,29;21,039906;105,489809;-2,189;0,001;-0,037;0,208;-0,018;-0,013;-1,003;-0,036;-0,002;0;0;11,7;0;314,8;0;12,3;42
878,134;2,26;21,039907;105,48981;-2,188;0,002;-0,037;0,148;-0,035;0,017;-1,006;-0,036;-0,004;0;0;12,3;0;314,8;0;12,9;42
878,384;2,24;21,039907;105,48981;-2,188;0,001;-0,037;0,051;-0,052;0,05;-1,008;-0,036;-0,002;0;0;11,7;0;314,8;0;12,3;42
878,633;2,22;21,039907;105,48981;-2,187;0,002;-0,037;0,175;-0,066;-0,013;-1,006;-0,037;0;0;0;11,7;0;314,8;0;12,3;42
878,883;2,21;21,039908;105,48981;-2,187;0,001;-0,037;0,171;-0,102;-0,121;-1,002;-0,036;-0,003;0;0;11,7;0;314,8;0;12,3;42
879,132;2,19;21,039908;105,489811;-2,188;0,001;-0,037;0,135;-0,057;-0,005;-1,002;-0,036;-0,002;0;0;11,7;0;314,8;0;12,3;42
879,382;2,18;21,039908;105,489811;-2,187;0,001;-0,038;0,069;-0,08;-0,045;-1,001;-0,036;-0,002;0;0;12,3;0;314,8;0;12,9;42
879,632;2,21;21,039908;105,489812;-2,188;0;-0,037;0,107;-0,015;-0,053;-0,991;-0,035;0;0;0;12,8;0;314,8;0;13,4;42
879,881;2,22;21,039908;105,489813;-2,189;0,001;-0,037;0,096;-0,037;-0,088;-1;-0,036;-0,009;0;0;11,7;0;314,8;0;12,3;42
880,131;2,23;21,039909;105,489813;-2,189;0;-0,038;0,106;0,025;0,025;-1,005;-0,037;-0,001;0;0;11,7;0;314,8;0;12,3;42
880,38;2,25;21,039909;105,489814;-2,189;0,001;-0,037;0,138;-0,067;-0,034;-1,005;-0,036;-0,002;0;0;12,3;0,1;314,8;0;12,9;42
880,63;2,24;21,039909;105,489814;-2,189;0,001;-0,037;0,18;0,021;-0,064;-1,004;-0,036;-0,003;0;0;11,7;0;314,8;0;12,3;42
880,88;2,23;21,039909;105,489814;-2,188;0,001;-0,037;0,15;-0,004;-0,022;-1,003;-0,036;-0,001;0;0;11,7;0,3;314,8;0;12,3;42
881,129;2,21;21,039909;105,489814;-2,188;0,001;-0,037;0,135;-0,038;-0,03;-1,004;-0,036;-0,003;0;0;12,3;0,1;314,8;0;12,9;42
881,379;2,24;21,039909;105,489814;-2,188;0,001;-0,037;0,181;-0,012;-0,015;-1,004;-0,036;-0,002;0;0;11,7;0;314,8;0;12,3;42
881,628;2,23;21,039909;105,489815;-2,188;0,001;-0,037;0,134;-0,026;-0,044;-1,004;-0,036;-0,002;0;0;11,7;0;314,8;0;12,3;42
881,878;2,25;21,039909;105,489815;-2,187;0,002;-0,037;0,182;-0,025;-0,038;-1,004;-0,036;-0,003;0;0;11,7;0,1;314,8;0;12,3;42
882,128;2,27;21,039909;105,489815;-2,187;0,001;-0,036;0,144;0,007;0,01;-1,004;-0,036;-0,002;0;0;11,7;0;314,8;0;12,3;42
882,377;2,26;21,039909;105,489815;-2,187;0,001;-0,037;0,145;-0,105;-0,048;-1,003;-0,036;-0,002;0;0;12,3;0;314,8;0;12,9;42
882,627;2,27;21,039909;105,489815;-2,19;0;-0,037;-0,132;0,007;-0,293;-0,983;-0,06;0,007;0;0;12,3;0;314,8;0;12,9;42
882,876;2,26;21,039909;105,489816;-2,189;0;-0,038;0,169;-0,114;0,022;-1,001;-0,045;-0,005;0;0;12,3;0;314,8;0;12,9;42
883,126;2,25;21,039909;105,489816;-2,189;0;-0,039;0,153;-0,034;-0,13;-0,996;-0,037;-0,004;0;0;11,4;0;314,8;0;12;42
883,376;2,25;21,039909;105,489816;-2,188;0,001;-0,037;0,146;0,007;-0,066;-1,008;-0,023;-0,003;0;0;11,7;0;314,8;0;12,3;42
883,625;2,24;21,039909;105,489817;-2,192;-0,004;-0,038;-0,326;-0,011;0,169;-1,003;-0,037;0,012;0;0;10,2;0;314,8;0;10,7;42
883,875;2,25;21,039909;105,489817;-2,218;-0,033;-0,121;-2,19;-0,859;-6,122;-0,777;-0,438;0,176;0;0;8,4;0;314,8;0;8,8;42
884,124;2,2;21,039909;105,489817;-2,229;-0,07;-0,012;3,55;1,559;5,431;-1,418;-0,063;-0,2;0;0;23,5;0;314,8;0;24,6;42
884,374;2,02;21,039909;105,489817;-2,231;-0,056;-0,011;-0,578;-0,685;-0,398;-1,128;0,135;0,064;0;0;9,6;0,1;314,8;0;10,1;42
884,624;1,83;21,039909;105,489818;-2,243;-0,038;-0,072;-1,812;-0,46;-0,395;-0,561;-0,263;0,121;0;0;7,6;0,1;314,8;0;8;42
884,873;1,8;21,039909;105,489818;-2,226;-0,009;-0,054;0,993;1,306;-1,119;-1,099;-0,207;0,013;0;0;14;0;314,8;0;14,7;42
885,123;1,76;21,039909;105,489818;-2,209;-0,04;-0,016;-0,479;-1,431;-0,219;-1,018;0,107;0,148;0;0;19,1;0,1;314,8;0;20,1;42
885,372;1,8;21,03991;105,489819;-2,206;-0,017;-0,067;-0,483;-0,924;1,708;-0,547;-0,188;0,037;0;0;10,8;0;314,8;0;11,4;42
885,622;1,94;21,03991;105,489819;-2,196;0,007;-0,144;0,211;-0,625;-1,948;-1,109;0,046;0,015;0;0;11,7;0;314,8;0;12,3;42
885,872;1,9;21,03991;105,489819;-2,176;-0,004;-0,125;1,551;-0,646;-2,897;-1,23;-0,017;0,006;0;0;13,7;0;314,8;0;14,4;42
886,121;2,08;21,03991;105,48982;-2,176;0,007;-0,126;-0,247;0,888;2,208;-0,948;-0,148;0,04;0;0;0;0;314,8;0;0;42
886,371;2,47;21,03991;105,48982;-2,176;0;-0,079;-1,214;-0,518;3,322;-0,723;-0,098;0,045;0;0;13,3;0;314,8;0;13,9;42
886,62;2,48;21,03991;105,48982;-2,182;0,012;-0,051;-0,547;-0,116;-0,804;-1,679;0,008;0,023;0;0;12,8;0;314,8;0;13,4;42
886,87;2,72;21,03991;105,48982;-2,191;0,003;-0,045;0,795;0,237;-2,684;-1,644;-0,258;-0,033;0;0;12,3;0,1;314,8;0;12,9;42
887,12;2,77;21,03991;105,489821;-2,188;-0,004;-0,076;-0,306;0,118;0,855;-0,646;-0,2;0,026;0;0;12,3;0;314,8;0;12,9;42
887,369;2,87;21,03991;105,489821;-2,196;-0,031;-0,154;-0,314;-0,7;3,539;-0,45;-0,182;0,117;0;0;5,8;0;314,8;0;6,1;42
887,619;2,8;21,03991;105,489821;-2,196;-0,01;-0,155;0,001;-0,887;-0,095;-0,865;-0,253;0,006;0;0;10,2;0;314,8;0;10,7;42
887,868;2,77;21,03991;105,489821;-2,186;-0,003;-0,182;0,52;-0,099;-2,077;-1,239;-0,077;0,005;0;0;21,7;0;314,8;0;22,8;42
888,118;2,59;21,03991;105,489822;-2,171;-0,009;-0,195;-0,91;-1,123;-0,145;-0,671;-0,178;0,116;0;0;6,8;0;314,8;0;7,1;42
888,368;2,61;21,03991;105,489822;-2,171;0,011;-0,136;0,738;1,206;-0,247;-0,838;-0,11;-0,02;0;0;0;0,1;314,8;0;0;42
888,617;2,72;21,039911;105,489822;-2,175;-0,013;-0,128;-0,146;-0,315;-3,621;-1,359;0,213;-0,04;0;0;0;0;314,8;0;0;42
888,867;2,73;21,039911;105,489822;-2,172;0,011;-0,141;-1,026;-0,083;0,035;-0,938;-0,05;0,07;0;0;24,7;0;314,8;0;25,9;42
889,116;2,66;21,039911;105,489823;-2,161;0,037;-0,138;2,018;1,182;-0,476;-1,549;-0,34;-0,14;0;0;11,7;0;314,8;0;12,3;42
889,366;2,59;21,03991;105,489823;-2,158;0,004;-0,131;0,813;0,243;-0,898;-0,922;0,139;0,014;0;0;7,6;0,1;314,8;0;8;42
889,616;2,67;21,03991;105,489823;-2,157;-0,008;-0,072;0,048;0,222;-1,896;-0,976;0,165;0,007;0;0;10,8;0,2;314,8;0;11,4;42
889,865;2,79;21,03991;105,489823;-2,166;0;-0,029;0,357;-0,165;-0,858;-1,168;-0,112;0,049;0;0;11,4;0;314,8;0;12;42
890,115;2,76;21,03991;105,489823;-2,179;0,02;-0,042;0,423;0,671;0,455;-0,757;-0,195;-0,131;0;0;18,8;0,2;314,8;0;19,7;42
890,364;2,74;21,039911;105,489823;-2,179;0,027;-0,057;1,199;0,128;-1,885;-1,358;0,097;-0,021;0;0;12,3;0,3;314,8;0;12,9;42
890,614;2,69;21,03991;105,489822;-2,197;0,009;-0,007;1,167;0,981;0,653;-0,945;-0,088;-0,05;0;0;11,7;0;314,8;0;12,3;42
890,864;2,71;21,03991;105,489822;-2,218;-0,002;-0,016;-0,505;-0,682;0,046;-0,974;0,221;-0,036;0;0;8,9;0,3;314,8;0;9,4;42
891,113;2,61;21,03991;105,489822;-2,219;0,009;-0,056;0,63;0,896;-4,509;-1,502;-0,124;-0,079;0;0;16,8;0,5;314,8;0;17,6;42
891,363;2,46;21,03991;105,489822;-2,192;0,024;-0,107;1,593;0,542;-2,764;-1,53;-0,091;-0,061;0;0;12,8;0,3;314,8;0;13,4;42
891,612;2,55;21,03991;105,489822;-2,16;0,022;-0,126;2,538;0,823;-0,352;-1,27;-0,205;-0,119;0;0;5,8;0,1;314,8;0;6,1;42
891,862;2,74;21,03991;105,489822;-2,19;-0,024;-0,133;-1,963;-0,652;-3,327;-1,236;0,079;0,028;0;0;15,7;0,3;314,8;0;16,5;42
892,112;2,7;21,03991;105,489822;-2,205;-0,031;-0,137;-0,858;-0,698;-4,214;-1,354;0,04;-0,004;0;0;13,3;0,1;314,8;0;13,9;42
892,361;2,52;21,03991;105,489822;-2,184;0,022;-0,232;1,24;1,319;-6,595;-1,955;-0,149;-0,227;0;0;22,7;0;314,8;0;23,9;42
892,611;2,52;21,03991;105,489822;-2,172;0,023;-0,162;0,428;0,285;0,593;-1,045;-0,04;-0,023;0;0;12,3;0,1;314,8;0;12,9;42
892,86;2,55;21,03991;105,489823;-2,171;-0,002;-0,118;0,235;-0,009;-0,458;-1;-0,037;-0,006;0;0;0;0,1;314,8;0;0;42
893,11;2,52;21,03991;105,489823;-2,171;0,009;-0,092;-0,032;-0,24;-0,209;-0,965;-0,018;-0,028;0;0;0;0;314,8;0;0;42
893,36;2,45;21,03991;105,489823;-2,173;0,007;-0,069;0,079;0,058;0,29;-0,994;-0,046;-0,013;0;0;9,6;0;314,8;0;10,1;42
893,609;2,43;21,03991;105,489823;-2,181;0,001;-0,061;0,186;-0,159;-0,156;-1,021;-0,065;-0,001;0;0;16,8;0;314,8;0;17,6;42
893,859;2,36;21,03991;105,489823;-2,188;-0,001;-0,051;0,071;-0,076;-0,049;-0,969;-0,047;0,009;0;0;0;0;314,8;0;0;42
894,108;2,32;21,03991;105,489823;-2,193;0;-0,048;0,206;0,12;0,257;-0,978;-0,04;0,006;0;0;15,7;0,1;314,8;0;16,5;42
894,358;2,31;21,03991;105,489824;-2,196;0,002;-0,048;0,071;0,191;-0,26;-1,031;-0,055;-0,011;0;0;0;0,3;314,8;0;0;42
894,608;2,28;21,03991;105,489824;-2,199;0,003;-0,046;0,195;0;0,008;-1,018;-0,038;-0,009;0;0;11,7;0,2;314,8;0;12,3;42
894,857;2,23;21,03991;105,489824;-2,201;0,001;-0,045;0,156;0,027;0,169;-1,041;-0,041;-0,009;0;0;0;0;314,8;0;0;42
895,107;2,17;21,03991;105,489824;-2,201;0,002;-0,043;0,187;-0,041;-0,128;-0,984;-0,038;-0,002;0;0;8,9;0,1;314,8;0;9,4;42
895,356;2,11;21,03991;105,489824;-2,203;0;-0,041;0,147;0,009;-0,062;-1,011;-0,049;0;0;0;0;0;314,8;0;0;42
895,606;2,1;21,03991;105,489823;-2,201;0,006;-0,043;0,193;-0,306;0,185;-1,01;-0,051;-0,007;0;0;12,3;0;314,8;0;12,9;42
895,856;2,13;21,03991;105,489823;-2,206;-0,012;-0,063;0,41;-0,7;3,337;-0,885;-0,09;-0,035;0;0;0;0;314,8;0;0;42
896,105;2,13;21,03991;105,489822;-2,21;-0,016;-0,072;0,441;0,764;1,225;-1,057;-0,078;-0,075;0;0;10,2;0;314,8;0;10,7;42
896,355;2,1;21,03991;105,489823;-2,199;0,005;-0,077;0,517;-0,089;0,322;-1,057;-0,033;0,012;0;0;11,7;0,1;314,8;0;12,3;42
896,604;2,15;21,03991;105,489823;-2,195;0,007;-0,054;0,084;0,001;-0,791;-1,025;-0,013;0,007;0;0;0;0,1;314,8;0;0;42
896,854;2,16;21,03991;105,489822;-2,197;0;-0,049;-0,037;0,019;0,096;-1,01;-0,045;0,023;0;0;0;0;314,8;0;0;42
897,104;2,24;21,03991;105,489822;-2,196;0,002;-0,05;0,365;-0,032;0,168;-0,987;-0,047;0,007;0;0;0;0,2;314,8;0;0;42
897,353;2,29;21,03991;105,489821;-2,198;0,003;-0,044;0,062;-0,138;-0,448;-0,97;-0,034;-0,011;0;0;16;0;314,8;0;16,8;42
897,603;2,32;21,03991;105,489821;-2,2;-0,005;-0,038;0,254;-0,293;0,55;-1,05;-0,026;-0,019;0;0;14;0,1;314,8;0;14,7;42
897,852;2,3;21,039909;105,489821;-2,197;0,008;-0,047;0,3;-0,073;0,065;-1,007;-0,07;0,012;0;0;0;0,1;314,8;0;0;42
898,102;2,4;21,039909;105,48982;-2,2;0;-0,043;-0,01;-0,046;-0,559;-1,003;-0,03;0,007;0;0;4,5;0;314,8;0;4,8;42
898,352;2,38;21,039908;105,489819;-2,199;0,002;-0,043;0,23;-0,022;0,384;-0,997;-0,05;-0,006;0;0;16,4;0,1;314,8;0;17,2;42
898,601;2,38;21,039909;105,48982;-2,198;0,003;-0,046;0,209;0,003;-0,236;-1,013;-0,047;-0,01;0;0;14,5;0;314,8;0;15,2;42
898,851;2,35;21,039909;105,489819;-2,203;-0,015;-0,044;-0,158;-0,147;-0,38;-0,993;-0,062;0,023;0;0;0;0;314,8;0;0;42
899,1;2,3;21,039908;105,489818;-2,196;0,006;-0,04;0,413;-0,058;0,536;-0,961;-0,043;0,152;0;0;15,7;0,1;314,8;0;16,5;42
899,35;2,33;21,039908;105,489817;-2,201;0,012;-0,047;0,256;-0,252;-0,232;-0,997;-0,038;-0,109;0;0;11,7;0;314,8;0;12,3;42
899,6;2,34;21,039908;105,489818;-2,193;0,003;-0,037;0,235;-0,043;0,616;-0,988;-0,045;0,025;0;0;4,5;0,1;314,8;0;4,8;42
899,849;2,33;21,039908;105,489817;-2,184;-0,009;-0,045;0,819;-0,728;0,412;-0,885;-0,011;-0,002;0;0;11,7;0,1;314,8;0;12,3;42
900,099;2,29;21,039907;105,489817;-2,186;-0,001;-0,034;-0,831;-0,269;-0,581;-0,945;0,018;-0,005;0;0;13,3;0,1;314,8;0;13,9;42
900,348;2,23;21,039907;105,489817;-2,196;0,015;-0,05;1,516;0,773;-1,719;-1,347;-0,106;-0,126;0;0;8,4;0,2;314,8;0;8,8;42
900,598;2,19;21,039906;105,489816;-2,185;0,034;-0,126;3,093;0,874;-4,045;-1,796;-0,243;-0,154;0;0;12,3;0,1;314,8;0;12,9;42
900,848;2,22;21,039906;105,489816;-2,164;0,005;-0,137;-0,717;-1,05;1,895;-0,947;-0,107;0,137;0;0;8,9;0;314,8;0;9,4;42
901,097;2,29;21,039906;105,489816;-2,153;0,002;-0,079;0,209;-1,213;0,294;-1,052;-0,021;0,058;0;0;13,7;0,2;314,8;0;14,4;42
901,347;2,32;21,039906;105,489817;-2,173;0,008;-0,072;-1,419;-2,272;2,026;-0,693;-0,275;0,137;0;0;14;0,1;314,8;0;14,7;42
901,596;2,31;21,039906;105,489815;-2,166;0,003;-0,076;-0,513;0,143;0,342;-0,787;-0,089;0,032;0;0;11,4;0,1;314,8;0;12;42
901,846;2,28;21,039905;105,489813;-2,167;0,048;-0,093;-0,505;0,51;-0,65;-1,154;-0,026;-0,02;0;0;0;0,2;314,8;0;0;42
902,096;2,33;21,039904;105,489813;-2,163;0,037;-0,069;0,258;-0,014;-0,475;-1,016;-0,013;0,008;0;0;10,2;0,3;314,8;0;10,7;42
902,345;2,36;21,039903;105,489811;-2,162;0,067;-0,065;0,051;0,698;0,386;-1,01;-0,035;-0,159;0;0;4,5;0,6;314,8;0;4,8;42
902,595;2,38;21,039902;105,489811;-2,162;0,059;-0,034;0,062;0,23;-0,273;-0,984;0,011;0,01;0;0;14,5;0,8;314,8;0;15,2;42
902,844;2,52;21,039901;105,48981;-2,159;0,042;-0,032;0,189;-0,707;-4,145;-1,056;0,209;-0,045;0;0;17,7;1,4;314,8;0;18,6;42
903,094;2,33;21,0399;105,489807;-2,114;0,073;-0,115;3,978;1,598;-1,035;-1,205;-0,179;-0,25;0;0;15,7;2,1;309,2;0;16,5;42
903,344;2,36;21,039899;105,489807;-2,032;0,124;-0,107;2,186;0,029;-2,099;-1,276;-0,139;-0,123;0;0;17,5;2,4;295,1;0;18,4;42
903,593;2,36;21,039898;105,489805;-1,956;0,085;-0,081;3,148;-0,115;-0,167;-1,004;-0,092;-0,025;0;0;14;3,1;279,9;0;14,7;42
903,843;2,35;21,039895;105,4898;-1,899;0,029;-0,115;1,014;-0,814;2,073;-0,48;-0,241;0,054;0;0;8,9;4,9;263,4;0;9,4;42
904,092;2,43;21,039895;105,4898;-1,89;-0,02;-0,043;0,46;-0,205;1,697;-0,673;0,018;0,06;0;0;15,3;5,3;258,4;0;16,1;42
904,342;2,47;21,039893;105,489797;-1,89;-0,012;-0,06;-0,099;1,206;1,042;-0,744;-0,128;0,081;0;0;13,3;5,1;258,3;0;13,9;42
904,592;2,52;21,039892;105,489795;-1,904;-0,021;-0,045;0,49;-0,406;-2,138;-1,279;0,089;0,002;0;0;15,7;5,2;256,3;0;16,5;42
904,841;2,48;21,03989;105,489793;-1,911;-0,006;-0,047;0,068;1,359;1,951;-0,94;-0,094;0,03;0;0;14;4,9;254,4;0;14,7;42
905,091;2,58;21,039889;105,48979;-1,917;-0,013;-0,026;-0,315;-0,888;-1,644;-1,298;0,006;-0,005;0;0;15,7;4,7;253,3;0;16,5;42
905,34;2,48;21,039888;105,489789;-1,925;0,003;-0,036;1,345;0,425;0,013;-1,212;-0,055;-0,015;0;0;12,3;4,8;251,8;0;12,9;42
905,59;2,44;21,039887;105,489787;-1,937;0,003;-0,062;0,048;0,744;-0,586;-1,457;-0,155;-0,07;0;0;12,8;4,8;250,3;0;13,4;42
905,84;2,43;21,039886;105,489785;-1,969;-0,001;-0,11;-0,836;0,833;0,676;-0,941;-0,099;0,002;0;0;13,3;4,9;249,4;0;13,9;42
906,089;2,47;21,039884;105,489782;-2;-0,013;-0,074;-0,027;-0,371;0,204;-1,289;-0,166;-0,049;0;0;14;4,6;247,9;0;14,7;42
906,339;2,51;21,039883;105,48978;-2,03;-0,024;-0,065;-0,8;-1,08;0,369;-1,195;0,03;-0,023;0;0;14,5;4,5;246,3;0;15,2;42
906,588;2,57;21,039881;105,489777;-2,063;-0,004;-0,052;-1,703;-0,018;0,994;-0,739;0,018;0,027;0;0;13,3;4,4;245,1;0;13,9;42
906,838;2,52;21,039881;105,489776;-2,074;0,008;-0,057;-0,763;-0,914;0,794;-0,921;0,031;0,034;0;0;16;4,3;244,5;0;16,8;42
907,088;2,51;21,039878;105,489772;-2,103;-0,017;-0,051;-1,065;0,005;2,082;-0,988;-0,166;0,012;0;0;11,7;4,4;243,5;0;12,3;42
907,337;2,62;21,039877;105,489769;-2,119;-0,021;-0,081;-0,403;-1,303;1,773;-0,695;-0,136;-0,005;0;0;17,1;4,3;242,9;0;18;42
907,587;2,57;21,039875;105,489766;-2,128;-0,006;-0,119;-0,365;1,026;-1,448;-1,08;-0,104;0,009;0;0;10,2;4,2;242;0;10,7;42
907,836;2,6;21,039874;105,489763;-2,132;-0,01;-0,112;-0,428;0,366;0,292;-0,606;-0,155;0,086;0;0;12,8;4,1;241,4;0;13,4;42
908,086;2,73;21,039872;105,489761;-2,158;-0,027;-0,091;0,378;0,453;-1,377;-1,082;0,111;0,009;0;0;21,4;3,9;240,8;0;22,5;42
908,336;2,64;21,039871;105,489759;-2,167;-0,026;-0,125;0,602;-0,531;-1,621;-1,4;-0,006;-0,076;0;0;17,7;3,7;240,5;0;18,6;42
908,585;2,57;21,039869;105,489756;-2,179;-0,036;-0,105;-0,139;0,043;1,415;-0,665;-0,087;0,074;0;0;7,6;3,4;240;0;8;42
908,835;2,52;21,039868;105,489754;-2,177;0,004;-0,112;1,059;-0,038;-1,897;-1,765;-0,219;-0,126;0;0;4,5;3,3;239,7;0;4,8;42
909,084;2,55;21,039866;105,489751;-2,182;0,029;-0,072;-0,297;-0,873;-0,112;-0,984;-0,062;-0,026;0;0;10,8;3;239,2;0;11,4;42
909,334;2,55;21,039865;105,48975;-2,178;0,017;-0,059;-0,194;-0,383;-0,194;-1,052;-0,015;0,026;0;0;12,8;3,2;238,7;0;13,4;42
909,584;2,51;21,039864;105,489748;-2,192;-0,007;-0,051;-1,069;-1,242;0,201;-0,836;-0,109;0,069;0;0;15,3;3,6;238,1;0;16,1;42
909,833;2,38;21,039863;105,489746;-2,203;-0,012;-0,054;-0,362;-0,454;-1,822;-1,241;-0,021;-0,029;0;0;12,8;3,6;237,7;0;13,4;42
910,083;2,44;21,039861;105,489743;-2,199;-0,003;-0,036;-0,277;0,675;0,228;-0,665;0,097;0,097;0;0;18,4;3,6;236,8;0;19,4;42
910,332;2,4;21,03986;105,489741;-2,204;-0,001;-0,038;-0,247;0,402;1,66;-0,764;-0,053;0,01;0;0;11,7;3,4;236,4;0;12,3;42
910,582;2,31;21,039859;105,48974;-2,214;-0,028;-0,039;-0,489;-0,314;-1,302;-1,284;0,051;0,026;0;0;12,3;3,1;236;0;12,9;42
910,832;2,26;21,039857;105,489738;-2,217;-0,044;-0,125;-0,892;-1,102;2,662;-0,419;-0,253;0,081;0;0;12,3;3;235,7;0;12,9;42
911,081;2,31;21,039856;105,489736;-2,213;-0,029;-0,099;-0,384;-0,313;1,061;-0,713;0,197;0,016;0;0;8,9;3;235,4;0;9,4;42
911,331;2,37;21,039854;105,489734;-2,226;0;-0,057;-0,232;0,271;-0,881;-1,145;-0,071;-0,062;0;0;10,2;2,6;235;0;10,7;42
